{"datasetJSONCreationDateTime":"2024-12-18T14:29:34","datasetJSONVersion":"1.1.0","fileOID":"CDISCPILOT01.adqsadas","dbLastModifiedDateTime":"2012-10-15T22:56:19","originator":"CDISC Data Exchange Standards Team","sourceSystem":{"name":"SAS on X64_10PRO","version":"9.0401M7"},"studyOID":"CDISCPILOT01","metaDataVersionOID":"CDISC.ADaM.2.1","metaDataRef":"define.xml","itemGroupOID":"ADQSADAS","records":12463,"name":"ADQSADAS","label":"ADAS-Cog Analysis","columns":[{"itemOID":"ADQSADAS.STUDYID","name":"STUDYID","label":"Study Identifier","dataType":"string","length":12},{"itemOID":"ADQSADAS.SITEID","name":"SITEID","label":"Study Site Identifier","dataType":"string","length":3},{"itemOID":"ADQSADAS.SITEGR1","name":"SITEGR1","label":"Pooled Site Group 1","dataType":"string","length":3},{"itemOID":"ADQSADAS.USUBJID","name":"USUBJID","label":"Unique Subject Identifier","dataType":"string","length":11,"keySequence":1},{"itemOID":"ADQSADAS.TRTSDT","name":"TRTSDT","label":"Date of First Exposure to Treatment","dataType":"date","targetDataType":"integer","displayFormat":"DATE9."},{"itemOID":"ADQSADAS.TRTEDT","name":"TRTEDT","label":"Date of Last Exposure to Treatment","dataType":"date","targetDataType":"integer","displayFormat":"DATE9."},{"itemOID":"ADQSADAS.TRTP","name":"TRTP","label":"Planned Treatment","dataType":"string","length":20},{"itemOID":"ADQSADAS.TRTPN","name":"TRTPN","label":"Planned Treatment (N)","dataType":"integer"},{"itemOID":"ADQSADAS.AGE","name":"AGE","label":"Age","dataType":"integer"},{"itemOID":"ADQSADAS.AGEGR1","name":"AGEGR1","label":"Pooled Age Group 1","dataType":"string","length":5},{"itemOID":"ADQSADAS.AGEGR1N","name":"AGEGR1N","label":"Pooled Age Group 1 (N)","dataType":"integer"},{"itemOID":"ADQSADAS.RACE","name":"RACE","label":"Race","dataType":"string","length":32},{"itemOID":"ADQSADAS.RACEN","name":"RACEN","label":"Race (N)","dataType":"integer"},{"itemOID":"ADQSADAS.SEX","name":"SEX","label":"Sex","dataType":"string","length":1},{"itemOID":"ADQSADAS.ITTFL","name":"ITTFL","label":"Intent-to-Treat Population Flag","dataType":"string","length":1},{"itemOID":"ADQSADAS.EFFFL","name":"EFFFL","label":"Efficacy Population Flag","dataType":"string","length":1},{"itemOID":"ADQSADAS.COMP24FL","name":"COMP24FL","label":"Completers of Week 24 Population Flag","dataType":"string","length":1},{"itemOID":"ADQSADAS.AVISIT","name":"AVISIT","label":"Analysis Visit","dataType":"string","length":16,"keySequence":3},{"itemOID":"ADQSADAS.AVISITN","name":"AVISITN","label":"Analysis Visit (N)","dataType":"integer"},{"itemOID":"ADQSADAS.VISIT","name":"VISIT","label":"Visit Name","dataType":"string","length":19},{"itemOID":"ADQSADAS.VISITNUM","name":"VISITNUM","label":"Visit Number","dataType":"decimal"},{"itemOID":"ADQSADAS.ADY","name":"ADY","label":"Analysis Relative Day","dataType":"integer"},{"itemOID":"ADQSADAS.ADT","name":"ADT","label":"Analysis Date","dataType":"date","targetDataType":"integer","displayFormat":"DATE9.","keySequence":4},{"itemOID":"ADQSADAS.PARAM","name":"PARAM","label":"Parameter","dataType":"string","length":100},{"itemOID":"ADQSADAS.PARAMCD","name":"PARAMCD","label":"Parameter Code","dataType":"string","length":8,"keySequence":2},{"itemOID":"ADQSADAS.PARAMN","name":"PARAMN","label":"Parameter (N)","dataType":"integer"},{"itemOID":"ADQSADAS.AVAL","name":"AVAL","label":"Analysis Value","dataType":"integer"},{"itemOID":"ADQSADAS.BASE","name":"BASE","label":"Baseline Value","dataType":"integer"},{"itemOID":"ADQSADAS.CHG","name":"CHG","label":"Baseline Value","dataType":"integer"},{"itemOID":"ADQSADAS.PCHG","name":"PCHG","label":"Percent Change from Baseline","dataType":"integer"},{"itemOID":"ADQSADAS.ABLFL","name":"ABLFL","label":"ABLFL","dataType":"string","length":1},{"itemOID":"ADQSADAS.ANL01FL","name":"ANL01FL","label":"Analysis Record Flag 01","dataType":"string","length":1},{"itemOID":"ADQSADAS.DTYPE","name":"DTYPE","label":"Derivation Type","dataType":"string","length":7},{"itemOID":"ADQSADAS.AWRANGE","name":"AWRANGE","label":"Analysis Window Valid Relative Range","dataType":"string","length":9},{"itemOID":"ADQSADAS.AWTARGET","name":"AWTARGET","label":"Analysis Window Target","dataType":"integer"},{"itemOID":"ADQSADAS.AWTDIFF","name":"AWTDIFF","label":"Analysis Window Diff from Target","dataType":"integer"},{"itemOID":"ADQSADAS.AWLO","name":"AWLO","label":"Analysis Window Beginning Timepoint","dataType":"integer"},{"itemOID":"ADQSADAS.AWHI","name":"AWHI","label":"Analysis Window Ending Timepoint","dataType":"integer"},{"itemOID":"ADQSADAS.AWU","name":"AWU","label":"Analysis Window Unit","dataType":"string","length":4},{"itemOID":"ADQSADAS.QSSEQ","name":"QSSEQ","label":"Sequence Number","dataType":"integer"}],"rows":[["CDISCPILOT01","701","701","01-701-1015","2014-01-02","2014-07-02","Placebo",0,63,"<65",1,"WHITE",1,"F","Y","Y","Y","Baseline",0,"BASELINE",3,1,"2014-01-02","Word Recall Task","ACITM01",1,3,3,null,null,"Y","Y","","<=1",1,0,null,1,"DAYS",5001],["CDISCPILOT01","701","701","01-701-1015","2014-01-02","2014-07-02","Placebo",0,63,"<65",1,"WHITE",1,"F","Y","Y","Y","Week 8",8,"WEEK 8",8,63,"2014-03-05","Word Recall Task","ACITM01",1,2,3,-1,-33.3333333333,"","Y","","2-84",56,7,2,84,"DAYS",5016],["CDISCPILOT01","701","701","01-701-1015","2014-01-02","2014-07-02","Placebo",0,63,"<65",1,"WHITE",1,"F","Y","Y","Y","Week 16",16,"WEEK 16",10,126,"2014-05-07","Word Recall Task","ACITM01",1,4,3,1,33.3333333333,"","Y","","85-140",112,14,85,140,"DAYS",5031],["CDISCPILOT01","701","701","01-701-1015","2014-01-02","2014-07-02","Placebo",0,63,"<65",1,"WHITE",1,"F","Y","Y","Y","Week 24",24,"WEEK 24",12,168,"2014-06-18","Word Recall Task","ACITM01",1,3,3,0,0,"","Y","",">140",168,0,141,null,"DAYS",5046],["CDISCPILOT01","701","701","01-701-1015","2014-01-02","2014-07-02","Placebo",0,63,"<65",1,"WHITE",1,"F","Y","Y","Y","Baseline",0,"BASELINE",3,1,"2014-01-02","Naming Objects And Fingers (Refer To 5 C","ACITM02",2,1,1,null,null,"Y","Y","","<=1",1,0,null,1,"DAYS",5002],["CDISCPILOT01","701","701","01-701-1015","2014-01-02","2014-07-02","Placebo",0,63,"<65",1,"WHITE",1,"F","Y","Y","Y","Week 8",8,"WEEK 8",8,63,"2014-03-05","Naming Objects And Fingers (Refer To 5 C","ACITM02",2,0,1,-1,-100,"","Y","","2-84",56,7,2,84,"DAYS",5017],["CDISCPILOT01","701","701","01-701-1015","2014-01-02","2014-07-02","Placebo",0,63,"<65",1,"WHITE",1,"F","Y","Y","Y","Week 16",16,"WEEK 16",10,126,"2014-05-07","Naming Objects And Fingers (Refer To 5 C","ACITM02",2,0,1,-1,-100,"","Y","","85-140",112,14,85,140,"DAYS",5032],["CDISCPILOT01","701","701","01-701-1015","2014-01-02","2014-07-02","Placebo",0,63,"<65",1,"WHITE",1,"F","Y","Y","Y","Week 24",24,"WEEK 24",12,168,"2014-06-18","Naming Objects And Fingers (Refer To 5 C","ACITM02",2,0,1,-1,-100,"","Y","",">140",168,0,141,null,"DAYS",5047],["CDISCPILOT01","701","701","01-701-1015","2014-01-02","2014-07-02","Placebo",0,63,"<65",1,"WHITE",1,"F","Y","Y","Y","Baseline",0,"BASELINE",3,1,"2014-01-02","Delayed Word Recall","ACITM03",3,3,3,null,null,"Y","Y","","<=1",1,0,null,1,"DAYS",5003],["CDISCPILOT01","701","701","01-701-1015","2014-01-02","2014-07-02","Placebo",0,63,"<65",1,"WHITE",1,"F","Y","Y","Y","Week 8",8,"WEEK 8",8,63,"2014-03-05","Delayed Word Recall","ACITM03",3,3,3,0,0,"","Y","","2-84",56,7,2,84,"DAYS",5018],["CDISCPILOT01","701","701","01-701-1015","2014-01-02","2014-07-02","Placebo",0,63,"<65",1,"WHITE",1,"F","Y","Y","Y","Week 16",16,"WEEK 16",10,126,"2014-05-07","Delayed Word Recall","ACITM03",3,1,3,-2,-66.6666666667,"","Y","","85-140",112,14,85,140,"DAYS",5033],["CDISCPILOT01","701","701","01-701-1015","2014-01-02","2014-07-02","Placebo",0,63,"<65",1,"WHITE",1,"F","Y","Y","Y","Week 24",24,"WEEK 24",12,168,"2014-06-18","Delayed Word Recall","ACITM03",3,2,3,-1,-33.3333333333,"","Y","",">140",168,0,141,null,"DAYS",5048],["CDISCPILOT01","701","701","01-701-1015","2014-01-02","2014-07-02","Placebo",0,63,"<65",1,"WHITE",1,"F","Y","Y","Y","Baseline",0,"BASELINE",3,1,"2014-01-02","Commands","ACITM04",4,0,0,null,null,"Y","Y","","<=1",1,0,null,1,"DAYS",5004],["CDISCPILOT01","701","701","01-701-1015","2014-01-02","2014-07-02","Placebo",0,63,"<65",1,"WHITE",1,"F","Y","Y","Y","Week 8",8,"WEEK 8",8,63,"2014-03-05","Commands","ACITM04",4,0,0,0,null,"","Y","","2-84",56,7,2,84,"DAYS",5019],["CDISCPILOT01","701","701","01-701-1015","2014-01-02","2014-07-02","Placebo",0,63,"<65",1,"WHITE",1,"F","Y","Y","Y","Week 16",16,"WEEK 16",10,126,"2014-05-07","Commands","ACITM04",4,0,0,0,null,"","Y","","85-140",112,14,85,140,"DAYS",5034],["CDISCPILOT01","701","701","01-701-1015","2014-01-02","2014-07-02","Placebo",0,63,"<65",1,"WHITE",1,"F","Y","Y","Y","Week 24",24,"WEEK 24",12,168,"2014-06-18","Commands","ACITM04",4,0,0,0,null,"","Y","",">140",168,0,141,null,"DAYS",5049],["CDISCPILOT01","701","701","01-701-1015","2014-01-02","2014-07-02","Placebo",0,63,"<65",1,"WHITE",1,"F","Y","Y","Y","Baseline",0,"BASELINE",3,1,"2014-01-02","Constructional Praxis","ACITM05",5,3,3,null,null,"Y","Y","","<=1",1,0,null,1,"DAYS",5005],["CDISCPILOT01","701","701","01-701-1015","2014-01-02","2014-07-02","Placebo",0,63,"<65",1,"WHITE",1,"F","Y","Y","Y","Week 8",8,"WEEK 8",8,63,"2014-03-05","Constructional Praxis","ACITM05",5,2,3,-1,-33.3333333333,"","Y","","2-84",56,7,2,84,"DAYS",5020],["CDISCPILOT01","701","701","01-701-1015","2014-01-02","2014-07-02","Placebo",0,63,"<65",1,"WHITE",1,"F","Y","Y","Y","Week 16",16,"WEEK 16",10,126,"2014-05-07","Constructional Praxis","ACITM05",5,2,3,-1,-33.3333333333,"","Y","","85-140",112,14,85,140,"DAYS",5035],["CDISCPILOT01","701","701","01-701-1015","2014-01-02","2014-07-02","Placebo",0,63,"<65",1,"WHITE",1,"F","Y","Y","Y","Week 24",24,"WEEK 24",12,168,"2014-06-18","Constructional Praxis","ACITM05",5,3,3,0,0,"","Y","",">140",168,0,141,null,"DAYS",5050],["CDISCPILOT01","701","701","01-701-1015","2014-01-02","2014-07-02","Placebo",0,63,"<65",1,"WHITE",1,"F","Y","Y","Y","Baseline",0,"BASELINE",3,1,"2014-01-02","Ideational Praxis","ACITM06",6,0,0,null,null,"Y","Y","","<=1",1,0,null,1,"DAYS",5006],["CDISCPILOT01","701","701","01-701-1015","2014-01-02","2014-07-02","Placebo",0,63,"<65",1,"WHITE",1,"F","Y","Y","Y","Week 8",8,"WEEK 8",8,63,"2014-03-05","Ideational Praxis","ACITM06",6,0,0,0,null,"","Y","","2-84",56,7,2,84,"DAYS",5021],["CDISCPILOT01","701","701","01-701-1015","2014-01-02","2014-07-02","Placebo",0,63,"<65",1,"WHITE",1,"F","Y","Y","Y","Week 16",16,"WEEK 16",10,126,"2014-05-07","Ideational Praxis","ACITM06",6,0,0,0,null,"","Y","","85-140",112,14,85,140,"DAYS",5036],["CDISCPILOT01","701","701","01-701-1015","2014-01-02","2014-07-02","Placebo",0,63,"<65",1,"WHITE",1,"F","Y","Y","Y","Week 24",24,"WEEK 24",12,168,"2014-06-18","Ideational Praxis","ACITM06",6,0,0,0,null,"","Y","",">140",168,0,141,null,"DAYS",5051],["CDISCPILOT01","701","701","01-701-1015","2014-01-02","2014-07-02","Placebo",0,63,"<65",1,"WHITE",1,"F","Y","Y","Y","Baseline",0,"BASELINE",3,1,"2014-01-02","Orientation","ACITM07",7,1,1,null,null,"Y","Y","","<=1",1,0,null,1,"DAYS",5007],["CDISCPILOT01","701","701","01-701-1015","2014-01-02","2014-07-02","Placebo",0,63,"<65",1,"WHITE",1,"F","Y","Y","Y","Week 8",8,"WEEK 8",8,63,"2014-03-05","Orientation","ACITM07",7,0,1,-1,-100,"","Y","","2-84",56,7,2,84,"DAYS",5022],["CDISCPILOT01","701","701","01-701-1015","2014-01-02","2014-07-02","Placebo",0,63,"<65",1,"WHITE",1,"F","Y","Y","Y","Week 16",16,"WEEK 16",10,126,"2014-05-07","Orientation","ACITM07",7,0,1,-1,-100,"","Y","","85-140",112,14,85,140,"DAYS",5037],["CDISCPILOT01","701","701","01-701-1015","2014-01-02","2014-07-02","Placebo",0,63,"<65",1,"WHITE",1,"F","Y","Y","Y","Week 24",24,"WEEK 24",12,168,"2014-06-18","Orientation","ACITM07",7,1,1,0,0,"","Y","",">140",168,0,141,null,"DAYS",5052],["CDISCPILOT01","701","701","01-701-1015","2014-01-02","2014-07-02","Placebo",0,63,"<65",1,"WHITE",1,"F","Y","Y","Y","Baseline",0,"BASELINE",3,1,"2014-01-02","Word Recognition","ACITM08",8,1,1,null,null,"Y","Y","","<=1",1,0,null,1,"DAYS",5008],["CDISCPILOT01","701","701","01-701-1015","2014-01-02","2014-07-02","Placebo",0,63,"<65",1,"WHITE",1,"F","Y","Y","Y","Week 8",8,"WEEK 8",8,63,"2014-03-05","Word Recognition","ACITM08",8,0,1,-1,-100,"","Y","","2-84",56,7,2,84,"DAYS",5023],["CDISCPILOT01","701","701","01-701-1015","2014-01-02","2014-07-02","Placebo",0,63,"<65",1,"WHITE",1,"F","Y","Y","Y","Week 16",16,"WEEK 16",10,126,"2014-05-07","Word Recognition","ACITM08",8,1,1,0,0,"","Y","","85-140",112,14,85,140,"DAYS",5038],["CDISCPILOT01","701","701","01-701-1015","2014-01-02","2014-07-02","Placebo",0,63,"<65",1,"WHITE",1,"F","Y","Y","Y","Week 24",24,"WEEK 24",12,168,"2014-06-18","Word Recognition","ACITM08",8,1,1,0,0,"","Y","",">140",168,0,141,null,"DAYS",5053],["CDISCPILOT01","701","701","01-701-1015","2014-01-02","2014-07-02","Placebo",0,63,"<65",1,"WHITE",1,"F","Y","Y","Y","Baseline",0,"BASELINE",3,1,"2014-01-02","Attention/Visual Search Task","ACITM09",9,23,23,null,null,"Y","Y","","<=1",1,0,null,1,"DAYS",5009],["CDISCPILOT01","701","701","01-701-1015","2014-01-02","2014-07-02","Placebo",0,63,"<65",1,"WHITE",1,"F","Y","Y","Y","Week 8",8,"WEEK 8",8,63,"2014-03-05","Attention/Visual Search Task","ACITM09",9,27,23,4,17.3913043478,"","Y","","2-84",56,7,2,84,"DAYS",5024],["CDISCPILOT01","701","701","01-701-1015","2014-01-02","2014-07-02","Placebo",0,63,"<65",1,"WHITE",1,"F","Y","Y","Y","Week 16",16,"WEEK 16",10,126,"2014-05-07","Attention/Visual Search Task","ACITM09",9,34,23,11,47.8260869565,"","Y","","85-140",112,14,85,140,"DAYS",5039],["CDISCPILOT01","701","701","01-701-1015","2014-01-02","2014-07-02","Placebo",0,63,"<65",1,"WHITE",1,"F","Y","Y","Y","Week 24",24,"WEEK 24",12,168,"2014-06-18","Attention/Visual Search Task","ACITM09",9,39,23,16,69.5652173913,"","Y","",">140",168,0,141,null,"DAYS",5054],["CDISCPILOT01","701","701","01-701-1015","2014-01-02","2014-07-02","Placebo",0,63,"<65",1,"WHITE",1,"F","Y","Y","Y","Baseline",0,"BASELINE",3,1,"2014-01-02","Maze Solution","ACITM10",10,3,3,null,null,"Y","Y","","<=1",1,0,null,1,"DAYS",5010],["CDISCPILOT01","701","701","01-701-1015","2014-01-02","2014-07-02","Placebo",0,63,"<65",1,"WHITE",1,"F","Y","Y","Y","Week 8",8,"WEEK 8",8,63,"2014-03-05","Maze Solution","ACITM10",10,4,3,1,33.3333333333,"","Y","","2-84",56,7,2,84,"DAYS",5025],["CDISCPILOT01","701","701","01-701-1015","2014-01-02","2014-07-02","Placebo",0,63,"<65",1,"WHITE",1,"F","Y","Y","Y","Week 16",16,"WEEK 16",10,126,"2014-05-07","Maze Solution","ACITM10",10,4,3,1,33.3333333333,"","Y","","85-140",112,14,85,140,"DAYS",5040],["CDISCPILOT01","701","701","01-701-1015","2014-01-02","2014-07-02","Placebo",0,63,"<65",1,"WHITE",1,"F","Y","Y","Y","Week 24",24,"WEEK 24",12,168,"2014-06-18","Maze Solution","ACITM10",10,3,3,0,0,"","Y","",">140",168,0,141,null,"DAYS",5055],["CDISCPILOT01","701","701","01-701-1015","2014-01-02","2014-07-02","Placebo",0,63,"<65",1,"WHITE",1,"F","Y","Y","Y","Baseline",0,"BASELINE",3,1,"2014-01-02","Spoken Language Ability","ACITM11",11,1,1,null,null,"Y","Y","","<=1",1,0,null,1,"DAYS",5011],["CDISCPILOT01","701","701","01-701-1015","2014-01-02","2014-07-02","Placebo",0,63,"<65",1,"WHITE",1,"F","Y","Y","Y","Week 8",8,"WEEK 8",8,63,"2014-03-05","Spoken Language Ability","ACITM11",11,1,1,0,0,"","Y","","2-84",56,7,2,84,"DAYS",5026],["CDISCPILOT01","701","701","01-701-1015","2014-01-02","2014-07-02","Placebo",0,63,"<65",1,"WHITE",1,"F","Y","Y","Y","Week 16",16,"WEEK 16",10,126,"2014-05-07","Spoken Language Ability","ACITM11",11,1,1,0,0,"","Y","","85-140",112,14,85,140,"DAYS",5041],["CDISCPILOT01","701","701","01-701-1015","2014-01-02","2014-07-02","Placebo",0,63,"<65",1,"WHITE",1,"F","Y","Y","Y","Week 24",24,"WEEK 24",12,168,"2014-06-18","Spoken Language Ability","ACITM11",11,0,1,-1,-100,"","Y","",">140",168,0,141,null,"DAYS",5056],["CDISCPILOT01","701","701","01-701-1015","2014-01-02","2014-07-02","Placebo",0,63,"<65",1,"WHITE",1,"F","Y","Y","Y","Baseline",0,"BASELINE",3,1,"2014-01-02","Comprehension Of Spoken Language","ACITM12",12,1,1,null,null,"Y","Y","","<=1",1,0,null,1,"DAYS",5012],["CDISCPILOT01","701","701","01-701-1015","2014-01-02","2014-07-02","Placebo",0,63,"<65",1,"WHITE",1,"F","Y","Y","Y","Week 8",8,"WEEK 8",8,63,"2014-03-05","Comprehension Of Spoken Language","ACITM12",12,1,1,0,0,"","Y","","2-84",56,7,2,84,"DAYS",5027],["CDISCPILOT01","701","701","01-701-1015","2014-01-02","2014-07-02","Placebo",0,63,"<65",1,"WHITE",1,"F","Y","Y","Y","Week 16",16,"WEEK 16",10,126,"2014-05-07","Comprehension Of Spoken Language","ACITM12",12,1,1,0,0,"","Y","","85-140",112,14,85,140,"DAYS",5042],["CDISCPILOT01","701","701","01-701-1015","2014-01-02","2014-07-02","Placebo",0,63,"<65",1,"WHITE",1,"F","Y","Y","Y","Week 24",24,"WEEK 24",12,168,"2014-06-18","Comprehension Of Spoken Language","ACITM12",12,0,1,-1,-100,"","Y","",">140",168,0,141,null,"DAYS",5057],["CDISCPILOT01","701","701","01-701-1015","2014-01-02","2014-07-02","Placebo",0,63,"<65",1,"WHITE",1,"F","Y","Y","Y","Baseline",0,"BASELINE",3,1,"2014-01-02","Word Finding Difficulty In Spontaneous S","ACITM13",13,1,1,null,null,"Y","Y","","<=1",1,0,null,1,"DAYS",5013],["CDISCPILOT01","701","701","01-701-1015","2014-01-02","2014-07-02","Placebo",0,63,"<65",1,"WHITE",1,"F","Y","Y","Y","Week 8",8,"WEEK 8",8,63,"2014-03-05","Word Finding Difficulty In Spontaneous S","ACITM13",13,1,1,0,0,"","Y","","2-84",56,7,2,84,"DAYS",5028],["CDISCPILOT01","701","701","01-701-1015","2014-01-02","2014-07-02","Placebo",0,63,"<65",1,"WHITE",1,"F","Y","Y","Y","Week 16",16,"WEEK 16",10,126,"2014-05-07","Word Finding Difficulty In Spontaneous S","ACITM13",13,1,1,0,0,"","Y","","85-140",112,14,85,140,"DAYS",5043],["CDISCPILOT01","701","701","01-701-1015","2014-01-02","2014-07-02","Placebo",0,63,"<65",1,"WHITE",1,"F","Y","Y","Y","Week 24",24,"WEEK 24",12,168,"2014-06-18","Word Finding Difficulty In Spontaneous S","ACITM13",13,0,1,-1,-100,"","Y","",">140",168,0,141,null,"DAYS",5058],["CDISCPILOT01","701","701","01-701-1015","2014-01-02","2014-07-02","Placebo",0,63,"<65",1,"WHITE",1,"F","Y","Y","Y","Baseline",0,"BASELINE",3,1,"2014-01-02","Recall Of Test Instructions","ACITM14",14,1,1,null,null,"Y","Y","","<=1",1,0,null,1,"DAYS",5014],["CDISCPILOT01","701","701","01-701-1015","2014-01-02","2014-07-02","Placebo",0,63,"<65",1,"WHITE",1,"F","Y","Y","Y","Week 8",8,"WEEK 8",8,63,"2014-03-05","Recall Of Test Instructions","ACITM14",14,1,1,0,0,"","Y","","2-84",56,7,2,84,"DAYS",5029],["CDISCPILOT01","701","701","01-701-1015","2014-01-02","2014-07-02","Placebo",0,63,"<65",1,"WHITE",1,"F","Y","Y","Y","Week 16",16,"WEEK 16",10,126,"2014-05-07","Recall Of Test Instructions","ACITM14",14,1,1,0,0,"","Y","","85-140",112,14,85,140,"DAYS",5044],["CDISCPILOT01","701","701","01-701-1015","2014-01-02","2014-07-02","Placebo",0,63,"<65",1,"WHITE",1,"F","Y","Y","Y","Week 24",24,"WEEK 24",12,168,"2014-06-18","Recall Of Test Instructions","ACITM14",14,0,1,-1,-100,"","Y","",">140",168,0,141,null,"DAYS",5059],["CDISCPILOT01","701","701","01-701-1015","2014-01-02","2014-07-02","Placebo",0,63,"<65",1,"WHITE",1,"F","Y","Y","Y","Baseline",0,"BASELINE",3,1,"2014-01-02","Adas-Cog(11) Subscore","ACTOT",15,13,13,null,null,"Y","Y","","<=1",1,0,null,1,"DAYS",5015],["CDISCPILOT01","701","701","01-701-1015","2014-01-02","2014-07-02","Placebo",0,63,"<65",1,"WHITE",1,"F","Y","Y","Y","Week 8",8,"WEEK 8",8,63,"2014-03-05","Adas-Cog(11) Subscore","ACTOT",15,8,13,-5,-38.4615384615,"","Y","","2-84",56,7,2,84,"DAYS",5030],["CDISCPILOT01","701","701","01-701-1015","2014-01-02","2014-07-02","Placebo",0,63,"<65",1,"WHITE",1,"F","Y","Y","Y","Week 16",16,"WEEK 16",10,126,"2014-05-07","Adas-Cog(11) Subscore","ACTOT",15,11,13,-2,-15.3846153846,"","Y","","85-140",112,14,85,140,"DAYS",5045],["CDISCPILOT01","701","701","01-701-1015","2014-01-02","2014-07-02","Placebo",0,63,"<65",1,"WHITE",1,"F","Y","Y","Y","Week 24",24,"WEEK 24",12,168,"2014-06-18","Adas-Cog(11) Subscore","ACTOT",15,8,13,-5,-38.4615384615,"","Y","",">140",168,0,141,null,"DAYS",5060],["CDISCPILOT01","701","701","01-701-1023","2012-08-05","2012-09-01","Placebo",0,64,"<65",1,"WHITE",1,"M","Y","Y","N","Baseline",0,"BASELINE",3,1,"2012-08-05","Word Recall Task","ACITM01",1,4,4,null,null,"Y","Y","","<=1",1,0,null,1,"DAYS",5001],["CDISCPILOT01","701","701","01-701-1023","2012-08-05","2012-09-01","Placebo",0,64,"<65",1,"WHITE",1,"M","Y","Y","N","Week 8",8,"WEEK 4",5,29,"2012-09-02","Word Recall Task","ACITM01",1,2,4,-2,-50,"","Y","","2-84",56,27,2,84,"DAYS",5016],["CDISCPILOT01","701","701","01-701-1023","2012-08-05","2012-09-01","Placebo",0,64,"<65",1,"WHITE",1,"M","Y","Y","N","Week 24",24,"RETRIEVAL",201,198,"2013-02-18","Word Recall Task","ACITM01",1,3,4,-1,-25,"","Y","",">140",168,30,141,null,"DAYS",5031],["CDISCPILOT01","701","701","01-701-1023","2012-08-05","2012-09-01","Placebo",0,64,"<65",1,"WHITE",1,"M","Y","Y","N","Baseline",0,"BASELINE",3,1,"2012-08-05","Naming Objects And Fingers (Refer To 5 C","ACITM02",2,2,2,null,null,"Y","Y","","<=1",1,0,null,1,"DAYS",5002],["CDISCPILOT01","701","701","01-701-1023","2012-08-05","2012-09-01","Placebo",0,64,"<65",1,"WHITE",1,"M","Y","Y","N","Week 8",8,"WEEK 4",5,29,"2012-09-02","Naming Objects And Fingers (Refer To 5 C","ACITM02",2,2,2,0,0,"","Y","","2-84",56,27,2,84,"DAYS",5017],["CDISCPILOT01","701","701","01-701-1023","2012-08-05","2012-09-01","Placebo",0,64,"<65",1,"WHITE",1,"M","Y","Y","N","Week 24",24,"RETRIEVAL",201,198,"2013-02-18","Naming Objects And Fingers (Refer To 5 C","ACITM02",2,0,2,-2,-100,"","Y","",">140",168,30,141,null,"DAYS",5032],["CDISCPILOT01","701","701","01-701-1023","2012-08-05","2012-09-01","Placebo",0,64,"<65",1,"WHITE",1,"M","Y","Y","N","Baseline",0,"BASELINE",3,1,"2012-08-05","Delayed Word Recall","ACITM03",3,2,2,null,null,"Y","Y","","<=1",1,0,null,1,"DAYS",5003],["CDISCPILOT01","701","701","01-701-1023","2012-08-05","2012-09-01","Placebo",0,64,"<65",1,"WHITE",1,"M","Y","Y","N","Week 8",8,"WEEK 4",5,29,"2012-09-02","Delayed Word Recall","ACITM03",3,2,2,0,0,"","Y","","2-84",56,27,2,84,"DAYS",5018],["CDISCPILOT01","701","701","01-701-1023","2012-08-05","2012-09-01","Placebo",0,64,"<65",1,"WHITE",1,"M","Y","Y","N","Week 24",24,"RETRIEVAL",201,198,"2013-02-18","Delayed Word Recall","ACITM03",3,3,2,1,50,"","Y","",">140",168,30,141,null,"DAYS",5033],["CDISCPILOT01","701","701","01-701-1023","2012-08-05","2012-09-01","Placebo",0,64,"<65",1,"WHITE",1,"M","Y","Y","N","Baseline",0,"BASELINE",3,1,"2012-08-05","Commands","ACITM04",4,0,0,null,null,"Y","Y","","<=1",1,0,null,1,"DAYS",5004],["CDISCPILOT01","701","701","01-701-1023","2012-08-05","2012-09-01","Placebo",0,64,"<65",1,"WHITE",1,"M","Y","Y","N","Week 8",8,"WEEK 4",5,29,"2012-09-02","Commands","ACITM04",4,0,0,0,null,"","Y","","2-84",56,27,2,84,"DAYS",5019],["CDISCPILOT01","701","701","01-701-1023","2012-08-05","2012-09-01","Placebo",0,64,"<65",1,"WHITE",1,"M","Y","Y","N","Week 24",24,"RETRIEVAL",201,198,"2013-02-18","Commands","ACITM04",4,0,0,0,null,"","Y","",">140",168,30,141,null,"DAYS",5034],["CDISCPILOT01","701","701","01-701-1023","2012-08-05","2012-09-01","Placebo",0,64,"<65",1,"WHITE",1,"M","Y","Y","N","Baseline",0,"BASELINE",3,1,"2012-08-05","Constructional Praxis","ACITM05",5,3,3,null,null,"Y","Y","","<=1",1,0,null,1,"DAYS",5005],["CDISCPILOT01","701","701","01-701-1023","2012-08-05","2012-09-01","Placebo",0,64,"<65",1,"WHITE",1,"M","Y","Y","N","Week 8",8,"WEEK 4",5,29,"2012-09-02","Constructional Praxis","ACITM05",5,2,3,-1,-33.3333333333,"","Y","","2-84",56,27,2,84,"DAYS",5020],["CDISCPILOT01","701","701","01-701-1023","2012-08-05","2012-09-01","Placebo",0,64,"<65",1,"WHITE",1,"M","Y","Y","N","Week 24",24,"RETRIEVAL",201,198,"2013-02-18","Constructional Praxis","ACITM05",5,4,3,1,33.3333333333,"","Y","",">140",168,30,141,null,"DAYS",5035],["CDISCPILOT01","701","701","01-701-1023","2012-08-05","2012-09-01","Placebo",0,64,"<65",1,"WHITE",1,"M","Y","Y","N","Baseline",0,"BASELINE",3,1,"2012-08-05","Ideational Praxis","ACITM06",6,0,0,null,null,"Y","Y","","<=1",1,0,null,1,"DAYS",5006],["CDISCPILOT01","701","701","01-701-1023","2012-08-05","2012-09-01","Placebo",0,64,"<65",1,"WHITE",1,"M","Y","Y","N","Week 8",8,"WEEK 4",5,29,"2012-09-02","Ideational Praxis","ACITM06",6,0,0,0,null,"","Y","","2-84",56,27,2,84,"DAYS",5021],["CDISCPILOT01","701","701","01-701-1023","2012-08-05","2012-09-01","Placebo",0,64,"<65",1,"WHITE",1,"M","Y","Y","N","Week 24",24,"RETRIEVAL",201,198,"2013-02-18","Ideational Praxis","ACITM06",6,0,0,0,null,"","Y","",">140",168,30,141,null,"DAYS",5036],["CDISCPILOT01","701","701","01-701-1023","2012-08-05","2012-09-01","Placebo",0,64,"<65",1,"WHITE",1,"M","Y","Y","N","Baseline",0,"BASELINE",3,1,"2012-08-05","Orientation","ACITM07",7,2,2,null,null,"Y","Y","","<=1",1,0,null,1,"DAYS",5007],["CDISCPILOT01","701","701","01-701-1023","2012-08-05","2012-09-01","Placebo",0,64,"<65",1,"WHITE",1,"M","Y","Y","N","Week 8",8,"WEEK 4",5,29,"2012-09-02","Orientation","ACITM07",7,1,2,-1,-50,"","Y","","2-84",56,27,2,84,"DAYS",5022],["CDISCPILOT01","701","701","01-701-1023","2012-08-05","2012-09-01","Placebo",0,64,"<65",1,"WHITE",1,"M","Y","Y","N","Week 24",24,"RETRIEVAL",201,198,"2013-02-18","Orientation","ACITM07",7,0,2,-2,-100,"","Y","",">140",168,30,141,null,"DAYS",5037],["CDISCPILOT01","701","701","01-701-1023","2012-08-05","2012-09-01","Placebo",0,64,"<65",1,"WHITE",1,"M","Y","Y","N","Baseline",0,"BASELINE",3,1,"2012-08-05","Word Recognition","ACITM08",8,2,2,null,null,"Y","Y","","<=1",1,0,null,1,"DAYS",5008],["CDISCPILOT01","701","701","01-701-1023","2012-08-05","2012-09-01","Placebo",0,64,"<65",1,"WHITE",1,"M","Y","Y","N","Week 8",8,"WEEK 4",5,29,"2012-09-02","Word Recognition","ACITM08",8,1,2,-1,-50,"","Y","","2-84",56,27,2,84,"DAYS",5023],["CDISCPILOT01","701","701","01-701-1023","2012-08-05","2012-09-01","Placebo",0,64,"<65",1,"WHITE",1,"M","Y","Y","N","Week 24",24,"RETRIEVAL",201,198,"2013-02-18","Word Recognition","ACITM08",8,1,2,-1,-50,"","Y","",">140",168,30,141,null,"DAYS",5038],["CDISCPILOT01","701","701","01-701-1023","2012-08-05","2012-09-01","Placebo",0,64,"<65",1,"WHITE",1,"M","Y","Y","N","Baseline",0,"BASELINE",3,1,"2012-08-05","Attention/Visual Search Task","ACITM09",9,39,39,null,null,"Y","Y","","<=1",1,0,null,1,"DAYS",5009],["CDISCPILOT01","701","701","01-701-1023","2012-08-05","2012-09-01","Placebo",0,64,"<65",1,"WHITE",1,"M","Y","Y","N","Week 8",8,"WEEK 4",5,29,"2012-09-02","Attention/Visual Search Task","ACITM09",9,40,39,1,2.5641025641,"","Y","","2-84",56,27,2,84,"DAYS",5024],["CDISCPILOT01","701","701","01-701-1023","2012-08-05","2012-09-01","Placebo",0,64,"<65",1,"WHITE",1,"M","Y","Y","N","Week 24",24,"RETRIEVAL",201,198,"2013-02-18","Attention/Visual Search Task","ACITM09",9,37,39,-2,-5.12820512821,"","Y","",">140",168,30,141,null,"DAYS",5039],["CDISCPILOT01","701","701","01-701-1023","2012-08-05","2012-09-01","Placebo",0,64,"<65",1,"WHITE",1,"M","Y","Y","N","Baseline",0,"BASELINE",3,1,"2012-08-05","Maze Solution","ACITM10",10,5,5,null,null,"Y","Y","","<=1",1,0,null,1,"DAYS",5010],["CDISCPILOT01","701","701","01-701-1023","2012-08-05","2012-09-01","Placebo",0,64,"<65",1,"WHITE",1,"M","Y","Y","N","Week 8",8,"WEEK 4",5,29,"2012-09-02","Maze Solution","ACITM10",10,5,5,0,0,"","Y","","2-84",56,27,2,84,"DAYS",5025],["CDISCPILOT01","701","701","01-701-1023","2012-08-05","2012-09-01","Placebo",0,64,"<65",1,"WHITE",1,"M","Y","Y","N","Week 24",24,"RETRIEVAL",201,198,"2013-02-18","Maze Solution","ACITM10",10,3,5,-2,-40,"","Y","",">140",168,30,141,null,"DAYS",5040],["CDISCPILOT01","701","701","01-701-1023","2012-08-05","2012-09-01","Placebo",0,64,"<65",1,"WHITE",1,"M","Y","Y","N","Baseline",0,"BASELINE",3,1,"2012-08-05","Spoken Language Ability","ACITM11",11,0,0,null,null,"Y","Y","","<=1",1,0,null,1,"DAYS",5011],["CDISCPILOT01","701","701","01-701-1023","2012-08-05","2012-09-01","Placebo",0,64,"<65",1,"WHITE",1,"M","Y","Y","N","Week 8",8,"WEEK 4",5,29,"2012-09-02","Spoken Language Ability","ACITM11",11,0,0,0,null,"","Y","","2-84",56,27,2,84,"DAYS",5026],["CDISCPILOT01","701","701","01-701-1023","2012-08-05","2012-09-01","Placebo",0,64,"<65",1,"WHITE",1,"M","Y","Y","N","Week 24",24,"RETRIEVAL",201,198,"2013-02-18","Spoken Language Ability","ACITM11",11,1,0,1,null,"","Y","",">140",168,30,141,null,"DAYS",5041],["CDISCPILOT01","701","701","01-701-1023","2012-08-05","2012-09-01","Placebo",0,64,"<65",1,"WHITE",1,"M","Y","Y","N","Baseline",0,"BASELINE",3,1,"2012-08-05","Comprehension Of Spoken Language","ACITM12",12,0,0,null,null,"Y","Y","","<=1",1,0,null,1,"DAYS",5012],["CDISCPILOT01","701","701","01-701-1023","2012-08-05","2012-09-01","Placebo",0,64,"<65",1,"WHITE",1,"M","Y","Y","N","Week 8",8,"WEEK 4",5,29,"2012-09-02","Comprehension Of Spoken Language","ACITM12",12,0,0,0,null,"","Y","","2-84",56,27,2,84,"DAYS",5027],["CDISCPILOT01","701","701","01-701-1023","2012-08-05","2012-09-01","Placebo",0,64,"<65",1,"WHITE",1,"M","Y","Y","N","Week 24",24,"RETRIEVAL",201,198,"2013-02-18","Comprehension Of Spoken Language","ACITM12",12,1,0,1,null,"","Y","",">140",168,30,141,null,"DAYS",5042],["CDISCPILOT01","701","701","01-701-1023","2012-08-05","2012-09-01","Placebo",0,64,"<65",1,"WHITE",1,"M","Y","Y","N","Baseline",0,"BASELINE",3,1,"2012-08-05","Word Finding Difficulty In Spontaneous S","ACITM13",13,0,0,null,null,"Y","Y","","<=1",1,0,null,1,"DAYS",5013],["CDISCPILOT01","701","701","01-701-1023","2012-08-05","2012-09-01","Placebo",0,64,"<65",1,"WHITE",1,"M","Y","Y","N","Week 8",8,"WEEK 4",5,29,"2012-09-02","Word Finding Difficulty In Spontaneous S","ACITM13",13,0,0,0,null,"","Y","","2-84",56,27,2,84,"DAYS",5028],["CDISCPILOT01","701","701","01-701-1023","2012-08-05","2012-09-01","Placebo",0,64,"<65",1,"WHITE",1,"M","Y","Y","N","Week 24",24,"RETRIEVAL",201,198,"2013-02-18","Word Finding Difficulty In Spontaneous S","ACITM13",13,1,0,1,null,"","Y","",">140",168,30,141,null,"DAYS",5043],["CDISCPILOT01","701","701","01-701-1023","2012-08-05","2012-09-01","Placebo",0,64,"<65",1,"WHITE",1,"M","Y","Y","N","Baseline",0,"BASELINE",3,1,"2012-08-05","Recall Of Test Instructions","ACITM14",14,0,0,null,null,"Y","Y","","<=1",1,0,null,1,"DAYS",5014],["CDISCPILOT01","701","701","01-701-1023","2012-08-05","2012-09-01","Placebo",0,64,"<65",1,"WHITE",1,"M","Y","Y","N","Week 8",8,"WEEK 4",5,29,"2012-09-02","Recall Of Test Instructions","ACITM14",14,0,0,0,null,"","Y","","2-84",56,27,2,84,"DAYS",5029],["CDISCPILOT01","701","701","01-701-1023","2012-08-05","2012-09-01","Placebo",0,64,"<65",1,"WHITE",1,"M","Y","Y","N","Week 24",24,"RETRIEVAL",201,198,"2013-02-18","Recall Of Test Instructions","ACITM14",14,1,0,1,null,"","Y","",">140",168,30,141,null,"DAYS",5044],["CDISCPILOT01","701","701","01-701-1023","2012-08-05","2012-09-01","Placebo",0,64,"<65",1,"WHITE",1,"M","Y","Y","N","Baseline",0,"BASELINE",3,1,"2012-08-05","Adas-Cog(11) Subscore","ACTOT",15,13,13,null,null,"Y","Y","","<=1",1,0,null,1,"DAYS",5015],["CDISCPILOT01","701","701","01-701-1023","2012-08-05","2012-09-01","Placebo",0,64,"<65",1,"WHITE",1,"M","Y","Y","N","Week 8",8,"WEEK 4",5,29,"2012-09-02","Adas-Cog(11) Subscore","ACTOT",15,8,13,-5,-38.4615384615,"","Y","","2-84",56,27,2,84,"DAYS",5030],["CDISCPILOT01","701","701","01-701-1023","2012-08-05","2012-09-01","Placebo",0,64,"<65",1,"WHITE",1,"M","Y","Y","N","Week 16",16,"WEEK 4",5,29,"2012-09-02","Adas-Cog(11) Subscore","ACTOT",15,8,13,-5,-38.4615384615,"","Y","LOCF","85-140",112,83,85,140,"DAYS",5030],["CDISCPILOT01","701","701","01-701-1023","2012-08-05","2012-09-01","Placebo",0,64,"<65",1,"WHITE",1,"M","Y","Y","N","Week 24",24,"RETRIEVAL",201,198,"2013-02-18","Adas-Cog(11) Subscore","ACTOT",15,12,13,-1,-7.69230769231,"","Y","",">140",168,30,141,null,"DAYS",5045],["CDISCPILOT01","701","701","01-701-1028","2013-07-19","2014-01-14","Xanomeline High Dose",81,71,"65-80",2,"WHITE",1,"M","Y","Y","Y","Baseline",0,"BASELINE",3,1,"2013-07-19","Word Recall Task","ACITM01",1,1,1,null,null,"Y","Y","","<=1",1,0,null,1,"DAYS",5001],["CDISCPILOT01","701","701","01-701-1028","2013-07-19","2014-01-14","Xanomeline High Dose",81,71,"65-80",2,"WHITE",1,"M","Y","Y","Y","Week 8",8,"WEEK 8",8,54,"2013-09-10","Word Recall Task","ACITM01",1,1,1,0,0,"","Y","","2-84",56,2,2,84,"DAYS",5016],["CDISCPILOT01","701","701","01-701-1028","2013-07-19","2014-01-14","Xanomeline High Dose",81,71,"65-80",2,"WHITE",1,"M","Y","Y","Y","Week 16",16,"WEEK 16",10,111,"2013-11-06","Word Recall Task","ACITM01",1,3,1,2,200,"","Y","","85-140",112,1,85,140,"DAYS",5031],["CDISCPILOT01","701","701","01-701-1028","2013-07-19","2014-01-14","Xanomeline High Dose",81,71,"65-80",2,"WHITE",1,"M","Y","Y","Y","Week 24",24,"WEEK 24",12,172,"2014-01-06","Word Recall Task","ACITM01",1,2,1,1,100,"","Y","",">140",168,4,141,null,"DAYS",5046],["CDISCPILOT01","701","701","01-701-1028","2013-07-19","2014-01-14","Xanomeline High Dose",81,71,"65-80",2,"WHITE",1,"M","Y","Y","Y","Baseline",0,"BASELINE",3,1,"2013-07-19","Naming Objects And Fingers (Refer To 5 C","ACITM02",2,0,0,null,null,"Y","Y","","<=1",1,0,null,1,"DAYS",5002],["CDISCPILOT01","701","701","01-701-1028","2013-07-19","2014-01-14","Xanomeline High Dose",81,71,"65-80",2,"WHITE",1,"M","Y","Y","Y","Week 8",8,"WEEK 8",8,54,"2013-09-10","Naming Objects And Fingers (Refer To 5 C","ACITM02",2,0,0,0,null,"","Y","","2-84",56,2,2,84,"DAYS",5017],["CDISCPILOT01","701","701","01-701-1028","2013-07-19","2014-01-14","Xanomeline High Dose",81,71,"65-80",2,"WHITE",1,"M","Y","Y","Y","Week 16",16,"WEEK 16",10,111,"2013-11-06","Naming Objects And Fingers (Refer To 5 C","ACITM02",2,0,0,0,null,"","Y","","85-140",112,1,85,140,"DAYS",5032],["CDISCPILOT01","701","701","01-701-1028","2013-07-19","2014-01-14","Xanomeline High Dose",81,71,"65-80",2,"WHITE",1,"M","Y","Y","Y","Week 24",24,"WEEK 24",12,172,"2014-01-06","Naming Objects And Fingers (Refer To 5 C","ACITM02",2,0,0,0,null,"","Y","",">140",168,4,141,null,"DAYS",5047],["CDISCPILOT01","701","701","01-701-1028","2013-07-19","2014-01-14","Xanomeline High Dose",81,71,"65-80",2,"WHITE",1,"M","Y","Y","Y","Baseline",0,"BASELINE",3,1,"2013-07-19","Delayed Word Recall","ACITM03",3,1,1,null,null,"Y","Y","","<=1",1,0,null,1,"DAYS",5003],["CDISCPILOT01","701","701","01-701-1028","2013-07-19","2014-01-14","Xanomeline High Dose",81,71,"65-80",2,"WHITE",1,"M","Y","Y","Y","Week 8",8,"WEEK 8",8,54,"2013-09-10","Delayed Word Recall","ACITM03",3,0,1,-1,-100,"","Y","","2-84",56,2,2,84,"DAYS",5018],["CDISCPILOT01","701","701","01-701-1028","2013-07-19","2014-01-14","Xanomeline High Dose",81,71,"65-80",2,"WHITE",1,"M","Y","Y","Y","Week 16",16,"WEEK 16",10,111,"2013-11-06","Delayed Word Recall","ACITM03",3,4,1,3,300,"","Y","","85-140",112,1,85,140,"DAYS",5033],["CDISCPILOT01","701","701","01-701-1028","2013-07-19","2014-01-14","Xanomeline High Dose",81,71,"65-80",2,"WHITE",1,"M","Y","Y","Y","Week 24",24,"WEEK 24",12,172,"2014-01-06","Delayed Word Recall","ACITM03",3,1,1,0,0,"","Y","",">140",168,4,141,null,"DAYS",5048],["CDISCPILOT01","701","701","01-701-1028","2013-07-19","2014-01-14","Xanomeline High Dose",81,71,"65-80",2,"WHITE",1,"M","Y","Y","Y","Baseline",0,"BASELINE",3,1,"2013-07-19","Commands","ACITM04",4,0,0,null,null,"Y","Y","","<=1",1,0,null,1,"DAYS",5004],["CDISCPILOT01","701","701","01-701-1028","2013-07-19","2014-01-14","Xanomeline High Dose",81,71,"65-80",2,"WHITE",1,"M","Y","Y","Y","Week 8",8,"WEEK 8",8,54,"2013-09-10","Commands","ACITM04",4,0,0,0,null,"","Y","","2-84",56,2,2,84,"DAYS",5019],["CDISCPILOT01","701","701","01-701-1028","2013-07-19","2014-01-14","Xanomeline High Dose",81,71,"65-80",2,"WHITE",1,"M","Y","Y","Y","Week 16",16,"WEEK 16",10,111,"2013-11-06","Commands","ACITM04",4,0,0,0,null,"","Y","","85-140",112,1,85,140,"DAYS",5034],["CDISCPILOT01","701","701","01-701-1028","2013-07-19","2014-01-14","Xanomeline High Dose",81,71,"65-80",2,"WHITE",1,"M","Y","Y","Y","Week 24",24,"WEEK 24",12,172,"2014-01-06","Commands","ACITM04",4,0,0,0,null,"","Y","",">140",168,4,141,null,"DAYS",5049],["CDISCPILOT01","701","701","01-701-1028","2013-07-19","2014-01-14","Xanomeline High Dose",81,71,"65-80",2,"WHITE",1,"M","Y","Y","Y","Baseline",0,"BASELINE",3,1,"2013-07-19","Constructional Praxis","ACITM05",5,0,0,null,null,"Y","Y","","<=1",1,0,null,1,"DAYS",5005],["CDISCPILOT01","701","701","01-701-1028","2013-07-19","2014-01-14","Xanomeline High Dose",81,71,"65-80",2,"WHITE",1,"M","Y","Y","Y","Week 8",8,"WEEK 8",8,54,"2013-09-10","Constructional Praxis","ACITM05",5,0,0,0,null,"","Y","","2-84",56,2,2,84,"DAYS",5020],["CDISCPILOT01","701","701","01-701-1028","2013-07-19","2014-01-14","Xanomeline High Dose",81,71,"65-80",2,"WHITE",1,"M","Y","Y","Y","Week 16",16,"WEEK 16",10,111,"2013-11-06","Constructional Praxis","ACITM05",5,0,0,0,null,"","Y","","85-140",112,1,85,140,"DAYS",5035],["CDISCPILOT01","701","701","01-701-1028","2013-07-19","2014-01-14","Xanomeline High Dose",81,71,"65-80",2,"WHITE",1,"M","Y","Y","Y","Week 24",24,"WEEK 24",12,172,"2014-01-06","Constructional Praxis","ACITM05",5,0,0,0,null,"","Y","",">140",168,4,141,null,"DAYS",5050],["CDISCPILOT01","701","701","01-701-1028","2013-07-19","2014-01-14","Xanomeline High Dose",81,71,"65-80",2,"WHITE",1,"M","Y","Y","Y","Baseline",0,"BASELINE",3,1,"2013-07-19","Ideational Praxis","ACITM06",6,0,0,null,null,"Y","Y","","<=1",1,0,null,1,"DAYS",5006],["CDISCPILOT01","701","701","01-701-1028","2013-07-19","2014-01-14","Xanomeline High Dose",81,71,"65-80",2,"WHITE",1,"M","Y","Y","Y","Week 8",8,"WEEK 8",8,54,"2013-09-10","Ideational Praxis","ACITM06",6,0,0,0,null,"","Y","","2-84",56,2,2,84,"DAYS",5021],["CDISCPILOT01","701","701","01-701-1028","2013-07-19","2014-01-14","Xanomeline High Dose",81,71,"65-80",2,"WHITE",1,"M","Y","Y","Y","Week 16",16,"WEEK 16",10,111,"2013-11-06","Ideational Praxis","ACITM06",6,0,0,0,null,"","Y","","85-140",112,1,85,140,"DAYS",5036],["CDISCPILOT01","701","701","01-701-1028","2013-07-19","2014-01-14","Xanomeline High Dose",81,71,"65-80",2,"WHITE",1,"M","Y","Y","Y","Week 24",24,"WEEK 24",12,172,"2014-01-06","Ideational Praxis","ACITM06",6,0,0,0,null,"","Y","",">140",168,4,141,null,"DAYS",5051],["CDISCPILOT01","701","701","01-701-1028","2013-07-19","2014-01-14","Xanomeline High Dose",81,71,"65-80",2,"WHITE",1,"M","Y","Y","Y","Baseline",0,"BASELINE",3,1,"2013-07-19","Orientation","ACITM07",7,0,0,null,null,"Y","Y","","<=1",1,0,null,1,"DAYS",5007],["CDISCPILOT01","701","701","01-701-1028","2013-07-19","2014-01-14","Xanomeline High Dose",81,71,"65-80",2,"WHITE",1,"M","Y","Y","Y","Week 8",8,"WEEK 8",8,54,"2013-09-10","Orientation","ACITM07",7,0,0,0,null,"","Y","","2-84",56,2,2,84,"DAYS",5022],["CDISCPILOT01","701","701","01-701-1028","2013-07-19","2014-01-14","Xanomeline High Dose",81,71,"65-80",2,"WHITE",1,"M","Y","Y","Y","Week 16",16,"WEEK 16",10,111,"2013-11-06","Orientation","ACITM07",7,0,0,0,null,"","Y","","85-140",112,1,85,140,"DAYS",5037],["CDISCPILOT01","701","701","01-701-1028","2013-07-19","2014-01-14","Xanomeline High Dose",81,71,"65-80",2,"WHITE",1,"M","Y","Y","Y","Week 24",24,"WEEK 24",12,172,"2014-01-06","Orientation","ACITM07",7,0,0,0,null,"","Y","",">140",168,4,141,null,"DAYS",5052],["CDISCPILOT01","701","701","01-701-1028","2013-07-19","2014-01-14","Xanomeline High Dose",81,71,"65-80",2,"WHITE",1,"M","Y","Y","Y","Baseline",0,"BASELINE",3,1,"2013-07-19","Word Recognition","ACITM08",8,2,2,null,null,"Y","Y","","<=1",1,0,null,1,"DAYS",5008],["CDISCPILOT01","701","701","01-701-1028","2013-07-19","2014-01-14","Xanomeline High Dose",81,71,"65-80",2,"WHITE",1,"M","Y","Y","Y","Week 8",8,"WEEK 8",8,54,"2013-09-10","Word Recognition","ACITM08",8,1,2,-1,-50,"","Y","","2-84",56,2,2,84,"DAYS",5023],["CDISCPILOT01","701","701","01-701-1028","2013-07-19","2014-01-14","Xanomeline High Dose",81,71,"65-80",2,"WHITE",1,"M","Y","Y","Y","Week 16",16,"WEEK 16",10,111,"2013-11-06","Word Recognition","ACITM08",8,1,2,-1,-50,"","Y","","85-140",112,1,85,140,"DAYS",5038],["CDISCPILOT01","701","701","01-701-1028","2013-07-19","2014-01-14","Xanomeline High Dose",81,71,"65-80",2,"WHITE",1,"M","Y","Y","Y","Week 24",24,"WEEK 24",12,172,"2014-01-06","Word Recognition","ACITM08",8,1,2,-1,-50,"","Y","",">140",168,4,141,null,"DAYS",5053],["CDISCPILOT01","701","701","01-701-1028","2013-07-19","2014-01-14","Xanomeline High Dose",81,71,"65-80",2,"WHITE",1,"M","Y","Y","Y","Baseline",0,"BASELINE",3,1,"2013-07-19","Attention/Visual Search Task","ACITM09",9,24,24,null,null,"Y","Y","","<=1",1,0,null,1,"DAYS",5009],["CDISCPILOT01","701","701","01-701-1028","2013-07-19","2014-01-14","Xanomeline High Dose",81,71,"65-80",2,"WHITE",1,"M","Y","Y","Y","Week 8",8,"WEEK 8",8,54,"2013-09-10","Attention/Visual Search Task","ACITM09",9,25,24,1,4.16666666667,"","Y","","2-84",56,2,2,84,"DAYS",5024],["CDISCPILOT01","701","701","01-701-1028","2013-07-19","2014-01-14","Xanomeline High Dose",81,71,"65-80",2,"WHITE",1,"M","Y","Y","Y","Week 16",16,"WEEK 16",10,111,"2013-11-06","Attention/Visual Search Task","ACITM09",9,34,24,10,41.6666666667,"","Y","","85-140",112,1,85,140,"DAYS",5039],["CDISCPILOT01","701","701","01-701-1028","2013-07-19","2014-01-14","Xanomeline High Dose",81,71,"65-80",2,"WHITE",1,"M","Y","Y","Y","Week 24",24,"WEEK 24",12,172,"2014-01-06","Attention/Visual Search Task","ACITM09",9,26,24,2,8.33333333333,"","Y","",">140",168,4,141,null,"DAYS",5054],["CDISCPILOT01","701","701","01-701-1028","2013-07-19","2014-01-14","Xanomeline High Dose",81,71,"65-80",2,"WHITE",1,"M","Y","Y","Y","Baseline",0,"BASELINE",3,1,"2013-07-19","Maze Solution","ACITM10",10,4,4,null,null,"Y","Y","","<=1",1,0,null,1,"DAYS",5010],["CDISCPILOT01","701","701","01-701-1028","2013-07-19","2014-01-14","Xanomeline High Dose",81,71,"65-80",2,"WHITE",1,"M","Y","Y","Y","Week 8",8,"WEEK 8",8,54,"2013-09-10","Maze Solution","ACITM10",10,5,4,1,25,"","Y","","2-84",56,2,2,84,"DAYS",5025],["CDISCPILOT01","701","701","01-701-1028","2013-07-19","2014-01-14","Xanomeline High Dose",81,71,"65-80",2,"WHITE",1,"M","Y","Y","Y","Week 16",16,"WEEK 16",10,111,"2013-11-06","Maze Solution","ACITM10",10,5,4,1,25,"","Y","","85-140",112,1,85,140,"DAYS",5040],["CDISCPILOT01","701","701","01-701-1028","2013-07-19","2014-01-14","Xanomeline High Dose",81,71,"65-80",2,"WHITE",1,"M","Y","Y","Y","Week 24",24,"WEEK 24",12,172,"2014-01-06","Maze Solution","ACITM10",10,5,4,1,25,"","Y","",">140",168,4,141,null,"DAYS",5055],["CDISCPILOT01","701","701","01-701-1028","2013-07-19","2014-01-14","Xanomeline High Dose",81,71,"65-80",2,"WHITE",1,"M","Y","Y","Y","Baseline",0,"BASELINE",3,1,"2013-07-19","Spoken Language Ability","ACITM11",11,0,0,null,null,"Y","Y","","<=1",1,0,null,1,"DAYS",5011],["CDISCPILOT01","701","701","01-701-1028","2013-07-19","2014-01-14","Xanomeline High Dose",81,71,"65-80",2,"WHITE",1,"M","Y","Y","Y","Week 8",8,"WEEK 8",8,54,"2013-09-10","Spoken Language Ability","ACITM11",11,0,0,0,null,"","Y","","2-84",56,2,2,84,"DAYS",5026],["CDISCPILOT01","701","701","01-701-1028","2013-07-19","2014-01-14","Xanomeline High Dose",81,71,"65-80",2,"WHITE",1,"M","Y","Y","Y","Week 16",16,"WEEK 16",10,111,"2013-11-06","Spoken Language Ability","ACITM11",11,0,0,0,null,"","Y","","85-140",112,1,85,140,"DAYS",5041],["CDISCPILOT01","701","701","01-701-1028","2013-07-19","2014-01-14","Xanomeline High Dose",81,71,"65-80",2,"WHITE",1,"M","Y","Y","Y","Week 24",24,"WEEK 24",12,172,"2014-01-06","Spoken Language Ability","ACITM11",11,0,0,0,null,"","Y","",">140",168,4,141,null,"DAYS",5056],["CDISCPILOT01","701","701","01-701-1028","2013-07-19","2014-01-14","Xanomeline High Dose",81,71,"65-80",2,"WHITE",1,"M","Y","Y","Y","Baseline",0,"BASELINE",3,1,"2013-07-19","Comprehension Of Spoken Language","ACITM12",12,0,0,null,null,"Y","Y","","<=1",1,0,null,1,"DAYS",5012],["CDISCPILOT01","701","701","01-701-1028","2013-07-19","2014-01-14","Xanomeline High Dose",81,71,"65-80",2,"WHITE",1,"M","Y","Y","Y","Week 8",8,"WEEK 8",8,54,"2013-09-10","Comprehension Of Spoken Language","ACITM12",12,0,0,0,null,"","Y","","2-84",56,2,2,84,"DAYS",5027],["CDISCPILOT01","701","701","01-701-1028","2013-07-19","2014-01-14","Xanomeline High Dose",81,71,"65-80",2,"WHITE",1,"M","Y","Y","Y","Week 16",16,"WEEK 16",10,111,"2013-11-06","Comprehension Of Spoken Language","ACITM12",12,0,0,0,null,"","Y","","85-140",112,1,85,140,"DAYS",5042],["CDISCPILOT01","701","701","01-701-1028","2013-07-19","2014-01-14","Xanomeline High Dose",81,71,"65-80",2,"WHITE",1,"M","Y","Y","Y","Week 24",24,"WEEK 24",12,172,"2014-01-06","Comprehension Of Spoken Language","ACITM12",12,0,0,0,null,"","Y","",">140",168,4,141,null,"DAYS",5057],["CDISCPILOT01","701","701","01-701-1028","2013-07-19","2014-01-14","Xanomeline High Dose",81,71,"65-80",2,"WHITE",1,"M","Y","Y","Y","Baseline",0,"BASELINE",3,1,"2013-07-19","Word Finding Difficulty In Spontaneous S","ACITM13",13,0,0,null,null,"Y","Y","","<=1",1,0,null,1,"DAYS",5013],["CDISCPILOT01","701","701","01-701-1028","2013-07-19","2014-01-14","Xanomeline High Dose",81,71,"65-80",2,"WHITE",1,"M","Y","Y","Y","Week 8",8,"WEEK 8",8,54,"2013-09-10","Word Finding Difficulty In Spontaneous S","ACITM13",13,0,0,0,null,"","Y","","2-84",56,2,2,84,"DAYS",5028],["CDISCPILOT01","701","701","01-701-1028","2013-07-19","2014-01-14","Xanomeline High Dose",81,71,"65-80",2,"WHITE",1,"M","Y","Y","Y","Week 16",16,"WEEK 16",10,111,"2013-11-06","Word Finding Difficulty In Spontaneous S","ACITM13",13,0,0,0,null,"","Y","","85-140",112,1,85,140,"DAYS",5043],["CDISCPILOT01","701","701","01-701-1028","2013-07-19","2014-01-14","Xanomeline High Dose",81,71,"65-80",2,"WHITE",1,"M","Y","Y","Y","Week 24",24,"WEEK 24",12,172,"2014-01-06","Word Finding Difficulty In Spontaneous S","ACITM13",13,0,0,0,null,"","Y","",">140",168,4,141,null,"DAYS",5058],["CDISCPILOT01","701","701","01-701-1028","2013-07-19","2014-01-14","Xanomeline High Dose",81,71,"65-80",2,"WHITE",1,"M","Y","Y","Y","Baseline",0,"BASELINE",3,1,"2013-07-19","Recall Of Test Instructions","ACITM14",14,0,0,null,null,"Y","Y","","<=1",1,0,null,1,"DAYS",5014],["CDISCPILOT01","701","701","01-701-1028","2013-07-19","2014-01-14","Xanomeline High Dose",81,71,"65-80",2,"WHITE",1,"M","Y","Y","Y","Week 8",8,"WEEK 8",8,54,"2013-09-10","Recall Of Test Instructions","ACITM14",14,0,0,0,null,"","Y","","2-84",56,2,2,84,"DAYS",5029],["CDISCPILOT01","701","701","01-701-1028","2013-07-19","2014-01-14","Xanomeline High Dose",81,71,"65-80",2,"WHITE",1,"M","Y","Y","Y","Week 16",16,"WEEK 16",10,111,"2013-11-06","Recall Of Test Instructions","ACITM14",14,0,0,0,null,"","Y","","85-140",112,1,85,140,"DAYS",5044],["CDISCPILOT01","701","701","01-701-1028","2013-07-19","2014-01-14","Xanomeline High Dose",81,71,"65-80",2,"WHITE",1,"M","Y","Y","Y","Week 24",24,"WEEK 24",12,172,"2014-01-06","Recall Of Test Instructions","ACITM14",14,0,0,0,null,"","Y","",">140",168,4,141,null,"DAYS",5059],["CDISCPILOT01","701","701","01-701-1028","2013-07-19","2014-01-14","Xanomeline High Dose",81,71,"65-80",2,"WHITE",1,"M","Y","Y","Y","Baseline",0,"BASELINE",3,1,"2013-07-19","Adas-Cog(11) Subscore","ACTOT",15,3,3,null,null,"Y","Y","","<=1",1,0,null,1,"DAYS",5015],["CDISCPILOT01","701","701","01-701-1028","2013-07-19","2014-01-14","Xanomeline High Dose",81,71,"65-80",2,"WHITE",1,"M","Y","Y","Y","Week 8",8,"WEEK 8",8,54,"2013-09-10","Adas-Cog(11) Subscore","ACTOT",15,2,3,-1,-33.3333333333,"","Y","","2-84",56,2,2,84,"DAYS",5030],["CDISCPILOT01","701","701","01-701-1028","2013-07-19","2014-01-14","Xanomeline High Dose",81,71,"65-80",2,"WHITE",1,"M","Y","Y","Y","Week 16",16,"WEEK 16",10,111,"2013-11-06","Adas-Cog(11) Subscore","ACTOT",15,4,3,1,33.3333333333,"","Y","","85-140",112,1,85,140,"DAYS",5045],["CDISCPILOT01","701","701","01-701-1028","2013-07-19","2014-01-14","Xanomeline High Dose",81,71,"65-80",2,"WHITE",1,"M","Y","Y","Y","Week 24",24,"WEEK 24",12,172,"2014-01-06","Adas-Cog(11) Subscore","ACTOT",15,3,3,0,0,"","Y","",">140",168,4,141,null,"DAYS",5060],["CDISCPILOT01","701","701","01-701-1033","2014-03-18","2014-03-31","Xanomeline Low Dose",54,74,"65-80",2,"WHITE",1,"M","Y","Y","N","Baseline",0,"BASELINE",3,1,"2014-03-18","Word Recall Task","ACITM01",1,5,5,null,null,"Y","Y","","<=1",1,0,null,1,"DAYS",5001],["CDISCPILOT01","701","701","01-701-1033","2014-03-18","2014-03-31","Xanomeline Low Dose",54,74,"65-80",2,"WHITE",1,"M","Y","Y","N","Week 8",8,"WEEK 4",5,28,"2014-04-14","Word Recall Task","ACITM01",1,5,5,0,0,"","Y","","2-84",56,28,2,84,"DAYS",5016],["CDISCPILOT01","701","701","01-701-1033","2014-03-18","2014-03-31","Xanomeline Low Dose",54,74,"65-80",2,"WHITE",1,"M","Y","Y","N","Week 24",24,"RETRIEVAL",201,182,"2014-09-15","Word Recall Task","ACITM01",1,6,5,1,20,"","Y","",">140",168,14,141,null,"DAYS",5031],["CDISCPILOT01","701","701","01-701-1033","2014-03-18","2014-03-31","Xanomeline Low Dose",54,74,"65-80",2,"WHITE",1,"M","Y","Y","N","Baseline",0,"BASELINE",3,1,"2014-03-18","Naming Objects And Fingers (Refer To 5 C","ACITM02",2,0,0,null,null,"Y","Y","","<=1",1,0,null,1,"DAYS",5002],["CDISCPILOT01","701","701","01-701-1033","2014-03-18","2014-03-31","Xanomeline Low Dose",54,74,"65-80",2,"WHITE",1,"M","Y","Y","N","Week 8",8,"WEEK 4",5,28,"2014-04-14","Naming Objects And Fingers (Refer To 5 C","ACITM02",2,0,0,0,null,"","Y","","2-84",56,28,2,84,"DAYS",5017],["CDISCPILOT01","701","701","01-701-1033","2014-03-18","2014-03-31","Xanomeline Low Dose",54,74,"65-80",2,"WHITE",1,"M","Y","Y","N","Week 24",24,"RETRIEVAL",201,182,"2014-09-15","Naming Objects And Fingers (Refer To 5 C","ACITM02",2,0,0,0,null,"","Y","",">140",168,14,141,null,"DAYS",5032],["CDISCPILOT01","701","701","01-701-1033","2014-03-18","2014-03-31","Xanomeline Low Dose",54,74,"65-80",2,"WHITE",1,"M","Y","Y","N","Baseline",0,"BASELINE",3,1,"2014-03-18","Delayed Word Recall","ACITM03",3,6,6,null,null,"Y","Y","","<=1",1,0,null,1,"DAYS",5003],["CDISCPILOT01","701","701","01-701-1033","2014-03-18","2014-03-31","Xanomeline Low Dose",54,74,"65-80",2,"WHITE",1,"M","Y","Y","N","Week 8",8,"WEEK 4",5,28,"2014-04-14","Delayed Word Recall","ACITM03",3,3,6,-3,-50,"","Y","","2-84",56,28,2,84,"DAYS",5018],["CDISCPILOT01","701","701","01-701-1033","2014-03-18","2014-03-31","Xanomeline Low Dose",54,74,"65-80",2,"WHITE",1,"M","Y","Y","N","Week 24",24,"RETRIEVAL",201,182,"2014-09-15","Delayed Word Recall","ACITM03",3,6,6,0,0,"","Y","",">140",168,14,141,null,"DAYS",5033],["CDISCPILOT01","701","701","01-701-1033","2014-03-18","2014-03-31","Xanomeline Low Dose",54,74,"65-80",2,"WHITE",1,"M","Y","Y","N","Baseline",0,"BASELINE",3,1,"2014-03-18","Commands","ACITM04",4,0,0,null,null,"Y","Y","","<=1",1,0,null,1,"DAYS",5004],["CDISCPILOT01","701","701","01-701-1033","2014-03-18","2014-03-31","Xanomeline Low Dose",54,74,"65-80",2,"WHITE",1,"M","Y","Y","N","Week 8",8,"WEEK 4",5,28,"2014-04-14","Commands","ACITM04",4,0,0,0,null,"","Y","","2-84",56,28,2,84,"DAYS",5019],["CDISCPILOT01","701","701","01-701-1033","2014-03-18","2014-03-31","Xanomeline Low Dose",54,74,"65-80",2,"WHITE",1,"M","Y","Y","N","Week 24",24,"RETRIEVAL",201,182,"2014-09-15","Commands","ACITM04",4,0,0,0,null,"","Y","",">140",168,14,141,null,"DAYS",5034],["CDISCPILOT01","701","701","01-701-1033","2014-03-18","2014-03-31","Xanomeline Low Dose",54,74,"65-80",2,"WHITE",1,"M","Y","Y","N","Baseline",0,"BASELINE",3,1,"2014-03-18","Constructional Praxis","ACITM05",5,1,1,null,null,"Y","Y","","<=1",1,0,null,1,"DAYS",5005],["CDISCPILOT01","701","701","01-701-1033","2014-03-18","2014-03-31","Xanomeline Low Dose",54,74,"65-80",2,"WHITE",1,"M","Y","Y","N","Week 8",8,"WEEK 4",5,28,"2014-04-14","Constructional Praxis","ACITM05",5,1,1,0,0,"","Y","","2-84",56,28,2,84,"DAYS",5020],["CDISCPILOT01","701","701","01-701-1033","2014-03-18","2014-03-31","Xanomeline Low Dose",54,74,"65-80",2,"WHITE",1,"M","Y","Y","N","Week 24",24,"RETRIEVAL",201,182,"2014-09-15","Constructional Praxis","ACITM05",5,0,1,-1,-100,"","Y","",">140",168,14,141,null,"DAYS",5035],["CDISCPILOT01","701","701","01-701-1033","2014-03-18","2014-03-31","Xanomeline Low Dose",54,74,"65-80",2,"WHITE",1,"M","Y","Y","N","Baseline",0,"BASELINE",3,1,"2014-03-18","Ideational Praxis","ACITM06",6,0,0,null,null,"Y","Y","","<=1",1,0,null,1,"DAYS",5006],["CDISCPILOT01","701","701","01-701-1033","2014-03-18","2014-03-31","Xanomeline Low Dose",54,74,"65-80",2,"WHITE",1,"M","Y","Y","N","Week 8",8,"WEEK 4",5,28,"2014-04-14","Ideational Praxis","ACITM06",6,0,0,0,null,"","Y","","2-84",56,28,2,84,"DAYS",5021],["CDISCPILOT01","701","701","01-701-1033","2014-03-18","2014-03-31","Xanomeline Low Dose",54,74,"65-80",2,"WHITE",1,"M","Y","Y","N","Week 24",24,"RETRIEVAL",201,182,"2014-09-15","Ideational Praxis","ACITM06",6,0,0,0,null,"","Y","",">140",168,14,141,null,"DAYS",5036],["CDISCPILOT01","701","701","01-701-1033","2014-03-18","2014-03-31","Xanomeline Low Dose",54,74,"65-80",2,"WHITE",1,"M","Y","Y","N","Baseline",0,"BASELINE",3,1,"2014-03-18","Orientation","ACITM07",7,0,0,null,null,"Y","Y","","<=1",1,0,null,1,"DAYS",5007],["CDISCPILOT01","701","701","01-701-1033","2014-03-18","2014-03-31","Xanomeline Low Dose",54,74,"65-80",2,"WHITE",1,"M","Y","Y","N","Week 8",8,"WEEK 4",5,28,"2014-04-14","Orientation","ACITM07",7,0,0,0,null,"","Y","","2-84",56,28,2,84,"DAYS",5022],["CDISCPILOT01","701","701","01-701-1033","2014-03-18","2014-03-31","Xanomeline Low Dose",54,74,"65-80",2,"WHITE",1,"M","Y","Y","N","Week 24",24,"RETRIEVAL",201,182,"2014-09-15","Orientation","ACITM07",7,0,0,0,null,"","Y","",">140",168,14,141,null,"DAYS",5037],["CDISCPILOT01","701","701","01-701-1033","2014-03-18","2014-03-31","Xanomeline Low Dose",54,74,"65-80",2,"WHITE",1,"M","Y","Y","N","Baseline",0,"BASELINE",3,1,"2014-03-18","Word Recognition","ACITM08",8,1,1,null,null,"Y","Y","","<=1",1,0,null,1,"DAYS",5008],["CDISCPILOT01","701","701","01-701-1033","2014-03-18","2014-03-31","Xanomeline Low Dose",54,74,"65-80",2,"WHITE",1,"M","Y","Y","N","Week 8",8,"WEEK 4",5,28,"2014-04-14","Word Recognition","ACITM08",8,2,1,1,100,"","Y","","2-84",56,28,2,84,"DAYS",5023],["CDISCPILOT01","701","701","01-701-1033","2014-03-18","2014-03-31","Xanomeline Low Dose",54,74,"65-80",2,"WHITE",1,"M","Y","Y","N","Week 24",24,"RETRIEVAL",201,182,"2014-09-15","Word Recognition","ACITM08",8,1,1,0,0,"","Y","",">140",168,14,141,null,"DAYS",5038],["CDISCPILOT01","701","701","01-701-1033","2014-03-18","2014-03-31","Xanomeline Low Dose",54,74,"65-80",2,"WHITE",1,"M","Y","Y","N","Baseline",0,"BASELINE",3,1,"2014-03-18","Attention/Visual Search Task","ACITM09",9,30,30,null,null,"Y","Y","","<=1",1,0,null,1,"DAYS",5009],["CDISCPILOT01","701","701","01-701-1033","2014-03-18","2014-03-31","Xanomeline Low Dose",54,74,"65-80",2,"WHITE",1,"M","Y","Y","N","Week 8",8,"WEEK 4",5,28,"2014-04-14","Attention/Visual Search Task","ACITM09",9,24,30,-6,-20,"","Y","","2-84",56,28,2,84,"DAYS",5024],["CDISCPILOT01","701","701","01-701-1033","2014-03-18","2014-03-31","Xanomeline Low Dose",54,74,"65-80",2,"WHITE",1,"M","Y","Y","N","Week 24",24,"RETRIEVAL",201,182,"2014-09-15","Attention/Visual Search Task","ACITM09",9,27,30,-3,-10,"","Y","",">140",168,14,141,null,"DAYS",5039],["CDISCPILOT01","701","701","01-701-1033","2014-03-18","2014-03-31","Xanomeline Low Dose",54,74,"65-80",2,"WHITE",1,"M","Y","Y","N","Baseline",0,"BASELINE",3,1,"2014-03-18","Maze Solution","ACITM10",10,7,7,null,null,"Y","Y","","<=1",1,0,null,1,"DAYS",5010],["CDISCPILOT01","701","701","01-701-1033","2014-03-18","2014-03-31","Xanomeline Low Dose",54,74,"65-80",2,"WHITE",1,"M","Y","Y","N","Week 8",8,"WEEK 4",5,28,"2014-04-14","Maze Solution","ACITM10",10,6,7,-1,-14.2857142857,"","Y","","2-84",56,28,2,84,"DAYS",5025],["CDISCPILOT01","701","701","01-701-1033","2014-03-18","2014-03-31","Xanomeline Low Dose",54,74,"65-80",2,"WHITE",1,"M","Y","Y","N","Week 24",24,"RETRIEVAL",201,182,"2014-09-15","Maze Solution","ACITM10",10,4,7,-3,-42.8571428571,"","Y","",">140",168,14,141,null,"DAYS",5040],["CDISCPILOT01","701","701","01-701-1033","2014-03-18","2014-03-31","Xanomeline Low Dose",54,74,"65-80",2,"WHITE",1,"M","Y","Y","N","Baseline",0,"BASELINE",3,1,"2014-03-18","Spoken Language Ability","ACITM11",11,0,0,null,null,"Y","Y","","<=1",1,0,null,1,"DAYS",5011],["CDISCPILOT01","701","701","01-701-1033","2014-03-18","2014-03-31","Xanomeline Low Dose",54,74,"65-80",2,"WHITE",1,"M","Y","Y","N","Week 8",8,"WEEK 4",5,28,"2014-04-14","Spoken Language Ability","ACITM11",11,0,0,0,null,"","Y","","2-84",56,28,2,84,"DAYS",5026],["CDISCPILOT01","701","701","01-701-1033","2014-03-18","2014-03-31","Xanomeline Low Dose",54,74,"65-80",2,"WHITE",1,"M","Y","Y","N","Week 24",24,"RETRIEVAL",201,182,"2014-09-15","Spoken Language Ability","ACITM11",11,0,0,0,null,"","Y","",">140",168,14,141,null,"DAYS",5041],["CDISCPILOT01","701","701","01-701-1033","2014-03-18","2014-03-31","Xanomeline Low Dose",54,74,"65-80",2,"WHITE",1,"M","Y","Y","N","Baseline",0,"BASELINE",3,1,"2014-03-18","Comprehension Of Spoken Language","ACITM12",12,0,0,null,null,"Y","Y","","<=1",1,0,null,1,"DAYS",5012],["CDISCPILOT01","701","701","01-701-1033","2014-03-18","2014-03-31","Xanomeline Low Dose",54,74,"65-80",2,"WHITE",1,"M","Y","Y","N","Week 8",8,"WEEK 4",5,28,"2014-04-14","Comprehension Of Spoken Language","ACITM12",12,0,0,0,null,"","Y","","2-84",56,28,2,84,"DAYS",5027],["CDISCPILOT01","701","701","01-701-1033","2014-03-18","2014-03-31","Xanomeline Low Dose",54,74,"65-80",2,"WHITE",1,"M","Y","Y","N","Week 24",24,"RETRIEVAL",201,182,"2014-09-15","Comprehension Of Spoken Language","ACITM12",12,0,0,0,null,"","Y","",">140",168,14,141,null,"DAYS",5042],["CDISCPILOT01","701","701","01-701-1033","2014-03-18","2014-03-31","Xanomeline Low Dose",54,74,"65-80",2,"WHITE",1,"M","Y","Y","N","Baseline",0,"BASELINE",3,1,"2014-03-18","Word Finding Difficulty In Spontaneous S","ACITM13",13,0,0,null,null,"Y","Y","","<=1",1,0,null,1,"DAYS",5013],["CDISCPILOT01","701","701","01-701-1033","2014-03-18","2014-03-31","Xanomeline Low Dose",54,74,"65-80",2,"WHITE",1,"M","Y","Y","N","Week 8",8,"WEEK 4",5,28,"2014-04-14","Word Finding Difficulty In Spontaneous S","ACITM13",13,0,0,0,null,"","Y","","2-84",56,28,2,84,"DAYS",5028],["CDISCPILOT01","701","701","01-701-1033","2014-03-18","2014-03-31","Xanomeline Low Dose",54,74,"65-80",2,"WHITE",1,"M","Y","Y","N","Week 24",24,"RETRIEVAL",201,182,"2014-09-15","Word Finding Difficulty In Spontaneous S","ACITM13",13,0,0,0,null,"","Y","",">140",168,14,141,null,"DAYS",5043],["CDISCPILOT01","701","701","01-701-1033","2014-03-18","2014-03-31","Xanomeline Low Dose",54,74,"65-80",2,"WHITE",1,"M","Y","Y","N","Baseline",0,"BASELINE",3,1,"2014-03-18","Recall Of Test Instructions","ACITM14",14,0,0,null,null,"Y","Y","","<=1",1,0,null,1,"DAYS",5014],["CDISCPILOT01","701","701","01-701-1033","2014-03-18","2014-03-31","Xanomeline Low Dose",54,74,"65-80",2,"WHITE",1,"M","Y","Y","N","Week 8",8,"WEEK 4",5,28,"2014-04-14","Recall Of Test Instructions","ACITM14",14,0,0,0,null,"","Y","","2-84",56,28,2,84,"DAYS",5029],["CDISCPILOT01","701","701","01-701-1033","2014-03-18","2014-03-31","Xanomeline Low Dose",54,74,"65-80",2,"WHITE",1,"M","Y","Y","N","Week 24",24,"RETRIEVAL",201,182,"2014-09-15","Recall Of Test Instructions","ACITM14",14,0,0,0,null,"","Y","",">140",168,14,141,null,"DAYS",5044],["CDISCPILOT01","701","701","01-701-1033","2014-03-18","2014-03-31","Xanomeline Low Dose",54,74,"65-80",2,"WHITE",1,"M","Y","Y","N","Baseline",0,"BASELINE",3,1,"2014-03-18","Adas-Cog(11) Subscore","ACTOT",15,7,7,null,null,"Y","Y","","<=1",1,0,null,1,"DAYS",5015],["CDISCPILOT01","701","701","01-701-1033","2014-03-18","2014-03-31","Xanomeline Low Dose",54,74,"65-80",2,"WHITE",1,"M","Y","Y","N","Week 8",8,"WEEK 4",5,28,"2014-04-14","Adas-Cog(11) Subscore","ACTOT",15,8,7,1,14.2857142857,"","Y","","2-84",56,28,2,84,"DAYS",5030],["CDISCPILOT01","701","701","01-701-1033","2014-03-18","2014-03-31","Xanomeline Low Dose",54,74,"65-80",2,"WHITE",1,"M","Y","Y","N","Week 16",16,"WEEK 4",5,28,"2014-04-14","Adas-Cog(11) Subscore","ACTOT",15,8,7,1,14.2857142857,"","Y","LOCF","85-140",112,84,85,140,"DAYS",5030],["CDISCPILOT01","701","701","01-701-1033","2014-03-18","2014-03-31","Xanomeline Low Dose",54,74,"65-80",2,"WHITE",1,"M","Y","Y","N","Week 24",24,"RETRIEVAL",201,182,"2014-09-15","Adas-Cog(11) Subscore","ACTOT",15,7,7,0,0,"","Y","",">140",168,14,141,null,"DAYS",5045],["CDISCPILOT01","701","701","01-701-1034","2014-07-01","2014-12-30","Xanomeline High Dose",81,77,"65-80",2,"WHITE",1,"F","Y","Y","Y","Baseline",0,"BASELINE",3,1,"2014-07-01","Word Recall Task","ACITM01",1,5,5,null,null,"Y","Y","","<=1",1,0,null,1,"DAYS",5001],["CDISCPILOT01","701","701","01-701-1034","2014-07-01","2014-12-30","Xanomeline High Dose",81,77,"65-80",2,"WHITE",1,"F","Y","Y","Y","Week 8",8,"WEEK 8",8,57,"2014-08-26","Word Recall Task","ACITM01",1,5,5,0,0,"","Y","","2-84",56,1,2,84,"DAYS",5016],["CDISCPILOT01","701","701","01-701-1034","2014-07-01","2014-12-30","Xanomeline High Dose",81,77,"65-80",2,"WHITE",1,"F","Y","Y","Y","Week 16",16,"WEEK 16",10,113,"2014-10-21","Word Recall Task","ACITM01",1,6,5,1,20,"","Y","","85-140",112,1,85,140,"DAYS",5031],["CDISCPILOT01","701","701","01-701-1034","2014-07-01","2014-12-30","Xanomeline High Dose",81,77,"65-80",2,"WHITE",1,"F","Y","Y","Y","Week 24",24,"WEEK 24",12,170,"2014-12-17","Word Recall Task","ACITM01",1,6,5,1,20,"","Y","",">140",168,2,141,null,"DAYS",5046],["CDISCPILOT01","701","701","01-701-1034","2014-07-01","2014-12-30","Xanomeline High Dose",81,77,"65-80",2,"WHITE",1,"F","Y","Y","Y","Baseline",0,"BASELINE",3,1,"2014-07-01","Naming Objects And Fingers (Refer To 5 C","ACITM02",2,0,0,null,null,"Y","Y","","<=1",1,0,null,1,"DAYS",5002],["CDISCPILOT01","701","701","01-701-1034","2014-07-01","2014-12-30","Xanomeline High Dose",81,77,"65-80",2,"WHITE",1,"F","Y","Y","Y","Week 8",8,"WEEK 8",8,57,"2014-08-26","Naming Objects And Fingers (Refer To 5 C","ACITM02",2,1,0,1,null,"","Y","","2-84",56,1,2,84,"DAYS",5017],["CDISCPILOT01","701","701","01-701-1034","2014-07-01","2014-12-30","Xanomeline High Dose",81,77,"65-80",2,"WHITE",1,"F","Y","Y","Y","Week 16",16,"WEEK 16",10,113,"2014-10-21","Naming Objects And Fingers (Refer To 5 C","ACITM02",2,1,0,1,null,"","Y","","85-140",112,1,85,140,"DAYS",5032],["CDISCPILOT01","701","701","01-701-1034","2014-07-01","2014-12-30","Xanomeline High Dose",81,77,"65-80",2,"WHITE",1,"F","Y","Y","Y","Week 24",24,"WEEK 24",12,170,"2014-12-17","Naming Objects And Fingers (Refer To 5 C","ACITM02",2,1,0,1,null,"","Y","",">140",168,2,141,null,"DAYS",5047],["CDISCPILOT01","701","701","01-701-1034","2014-07-01","2014-12-30","Xanomeline High Dose",81,77,"65-80",2,"WHITE",1,"F","Y","Y","Y","Baseline",0,"BASELINE",3,1,"2014-07-01","Delayed Word Recall","ACITM03",3,9,9,null,null,"Y","Y","","<=1",1,0,null,1,"DAYS",5003],["CDISCPILOT01","701","701","01-701-1034","2014-07-01","2014-12-30","Xanomeline High Dose",81,77,"65-80",2,"WHITE",1,"F","Y","Y","Y","Week 8",8,"WEEK 8",8,57,"2014-08-26","Delayed Word Recall","ACITM03",3,7,9,-2,-22.2222222222,"","Y","","2-84",56,1,2,84,"DAYS",5018],["CDISCPILOT01","701","701","01-701-1034","2014-07-01","2014-12-30","Xanomeline High Dose",81,77,"65-80",2,"WHITE",1,"F","Y","Y","Y","Week 16",16,"WEEK 16",10,113,"2014-10-21","Delayed Word Recall","ACITM03",3,10,9,1,11.1111111111,"","Y","","85-140",112,1,85,140,"DAYS",5033],["CDISCPILOT01","701","701","01-701-1034","2014-07-01","2014-12-30","Xanomeline High Dose",81,77,"65-80",2,"WHITE",1,"F","Y","Y","Y","Week 24",24,"WEEK 24",12,170,"2014-12-17","Delayed Word Recall","ACITM03",3,10,9,1,11.1111111111,"","Y","",">140",168,2,141,null,"DAYS",5048],["CDISCPILOT01","701","701","01-701-1034","2014-07-01","2014-12-30","Xanomeline High Dose",81,77,"65-80",2,"WHITE",1,"F","Y","Y","Y","Baseline",0,"BASELINE",3,1,"2014-07-01","Commands","ACITM04",4,0,0,null,null,"Y","Y","","<=1",1,0,null,1,"DAYS",5004],["CDISCPILOT01","701","701","01-701-1034","2014-07-01","2014-12-30","Xanomeline High Dose",81,77,"65-80",2,"WHITE",1,"F","Y","Y","Y","Week 8",8,"WEEK 8",8,57,"2014-08-26","Commands","ACITM04",4,0,0,0,null,"","Y","","2-84",56,1,2,84,"DAYS",5019],["CDISCPILOT01","701","701","01-701-1034","2014-07-01","2014-12-30","Xanomeline High Dose",81,77,"65-80",2,"WHITE",1,"F","Y","Y","Y","Week 16",16,"WEEK 16",10,113,"2014-10-21","Commands","ACITM04",4,0,0,0,null,"","Y","","85-140",112,1,85,140,"DAYS",5034],["CDISCPILOT01","701","701","01-701-1034","2014-07-01","2014-12-30","Xanomeline High Dose",81,77,"65-80",2,"WHITE",1,"F","Y","Y","Y","Week 24",24,"WEEK 24",12,170,"2014-12-17","Commands","ACITM04",4,0,0,0,null,"","Y","",">140",168,2,141,null,"DAYS",5049],["CDISCPILOT01","701","701","01-701-1034","2014-07-01","2014-12-30","Xanomeline High Dose",81,77,"65-80",2,"WHITE",1,"F","Y","Y","Y","Baseline",0,"BASELINE",3,1,"2014-07-01","Constructional Praxis","ACITM05",5,2,2,null,null,"Y","Y","","<=1",1,0,null,1,"DAYS",5005],["CDISCPILOT01","701","701","01-701-1034","2014-07-01","2014-12-30","Xanomeline High Dose",81,77,"65-80",2,"WHITE",1,"F","Y","Y","Y","Week 8",8,"WEEK 8",8,57,"2014-08-26","Constructional Praxis","ACITM05",5,1,2,-1,-50,"","Y","","2-84",56,1,2,84,"DAYS",5020],["CDISCPILOT01","701","701","01-701-1034","2014-07-01","2014-12-30","Xanomeline High Dose",81,77,"65-80",2,"WHITE",1,"F","Y","Y","Y","Week 16",16,"WEEK 16",10,113,"2014-10-21","Constructional Praxis","ACITM05",5,3,2,1,50,"","Y","","85-140",112,1,85,140,"DAYS",5035],["CDISCPILOT01","701","701","01-701-1034","2014-07-01","2014-12-30","Xanomeline High Dose",81,77,"65-80",2,"WHITE",1,"F","Y","Y","Y","Week 24",24,"WEEK 24",12,170,"2014-12-17","Constructional Praxis","ACITM05",5,2,2,0,0,"","Y","",">140",168,2,141,null,"DAYS",5050],["CDISCPILOT01","701","701","01-701-1034","2014-07-01","2014-12-30","Xanomeline High Dose",81,77,"65-80",2,"WHITE",1,"F","Y","Y","Y","Baseline",0,"BASELINE",3,1,"2014-07-01","Ideational Praxis","ACITM06",6,1,1,null,null,"Y","Y","","<=1",1,0,null,1,"DAYS",5006],["CDISCPILOT01","701","701","01-701-1034","2014-07-01","2014-12-30","Xanomeline High Dose",81,77,"65-80",2,"WHITE",1,"F","Y","Y","Y","Week 8",8,"WEEK 8",8,57,"2014-08-26","Ideational Praxis","ACITM06",6,0,1,-1,-100,"","Y","","2-84",56,1,2,84,"DAYS",5021],["CDISCPILOT01","701","701","01-701-1034","2014-07-01","2014-12-30","Xanomeline High Dose",81,77,"65-80",2,"WHITE",1,"F","Y","Y","Y","Week 16",16,"WEEK 16",10,113,"2014-10-21","Ideational Praxis","ACITM06",6,0,1,-1,-100,"","Y","","85-140",112,1,85,140,"DAYS",5036],["CDISCPILOT01","701","701","01-701-1034","2014-07-01","2014-12-30","Xanomeline High Dose",81,77,"65-80",2,"WHITE",1,"F","Y","Y","Y","Week 24",24,"WEEK 24",12,170,"2014-12-17","Ideational Praxis","ACITM06",6,0,1,-1,-100,"","Y","",">140",168,2,141,null,"DAYS",5051],["CDISCPILOT01","701","701","01-701-1034","2014-07-01","2014-12-30","Xanomeline High Dose",81,77,"65-80",2,"WHITE",1,"F","Y","Y","Y","Baseline",0,"BASELINE",3,1,"2014-07-01","Orientation","ACITM07",7,0,0,null,null,"Y","Y","","<=1",1,0,null,1,"DAYS",5007],["CDISCPILOT01","701","701","01-701-1034","2014-07-01","2014-12-30","Xanomeline High Dose",81,77,"65-80",2,"WHITE",1,"F","Y","Y","Y","Week 8",8,"WEEK 8",8,57,"2014-08-26","Orientation","ACITM07",7,0,0,0,null,"","Y","","2-84",56,1,2,84,"DAYS",5022],["CDISCPILOT01","701","701","01-701-1034","2014-07-01","2014-12-30","Xanomeline High Dose",81,77,"65-80",2,"WHITE",1,"F","Y","Y","Y","Week 16",16,"WEEK 16",10,113,"2014-10-21","Orientation","ACITM07",7,0,0,0,null,"","Y","","85-140",112,1,85,140,"DAYS",5037],["CDISCPILOT01","701","701","01-701-1034","2014-07-01","2014-12-30","Xanomeline High Dose",81,77,"65-80",2,"WHITE",1,"F","Y","Y","Y","Week 24",24,"WEEK 24",12,170,"2014-12-17","Orientation","ACITM07",7,0,0,0,null,"","Y","",">140",168,2,141,null,"DAYS",5052],["CDISCPILOT01","701","701","01-701-1034","2014-07-01","2014-12-30","Xanomeline High Dose",81,77,"65-80",2,"WHITE",1,"F","Y","Y","Y","Baseline",0,"BASELINE",3,1,"2014-07-01","Word Recognition","ACITM08",8,3,3,null,null,"Y","Y","","<=1",1,0,null,1,"DAYS",5008],["CDISCPILOT01","701","701","01-701-1034","2014-07-01","2014-12-30","Xanomeline High Dose",81,77,"65-80",2,"WHITE",1,"F","Y","Y","Y","Week 8",8,"WEEK 8",8,57,"2014-08-26","Word Recognition","ACITM08",8,4,3,1,33.3333333333,"","Y","","2-84",56,1,2,84,"DAYS",5023],["CDISCPILOT01","701","701","01-701-1034","2014-07-01","2014-12-30","Xanomeline High Dose",81,77,"65-80",2,"WHITE",1,"F","Y","Y","Y","Week 16",16,"WEEK 16",10,113,"2014-10-21","Word Recognition","ACITM08",8,4,3,1,33.3333333333,"","Y","","85-140",112,1,85,140,"DAYS",5038],["CDISCPILOT01","701","701","01-701-1034","2014-07-01","2014-12-30","Xanomeline High Dose",81,77,"65-80",2,"WHITE",1,"F","Y","Y","Y","Week 24",24,"WEEK 24",12,170,"2014-12-17","Word Recognition","ACITM08",8,2,3,-1,-33.3333333333,"","Y","",">140",168,2,141,null,"DAYS",5053],["CDISCPILOT01","701","701","01-701-1034","2014-07-01","2014-12-30","Xanomeline High Dose",81,77,"65-80",2,"WHITE",1,"F","Y","Y","Y","Baseline",0,"BASELINE",3,1,"2014-07-01","Attention/Visual Search Task","ACITM09",9,20,20,null,null,"Y","Y","","<=1",1,0,null,1,"DAYS",5009],["CDISCPILOT01","701","701","01-701-1034","2014-07-01","2014-12-30","Xanomeline High Dose",81,77,"65-80",2,"WHITE",1,"F","Y","Y","Y","Week 8",8,"WEEK 8",8,57,"2014-08-26","Attention/Visual Search Task","ACITM09",9,20,20,0,0,"","Y","","2-84",56,1,2,84,"DAYS",5024],["CDISCPILOT01","701","701","01-701-1034","2014-07-01","2014-12-30","Xanomeline High Dose",81,77,"65-80",2,"WHITE",1,"F","Y","Y","Y","Week 16",16,"WEEK 16",10,113,"2014-10-21","Attention/Visual Search Task","ACITM09",9,27,20,7,35,"","Y","","85-140",112,1,85,140,"DAYS",5039],["CDISCPILOT01","701","701","01-701-1034","2014-07-01","2014-12-30","Xanomeline High Dose",81,77,"65-80",2,"WHITE",1,"F","Y","Y","Y","Week 24",24,"WEEK 24",12,170,"2014-12-17","Attention/Visual Search Task","ACITM09",9,31,20,11,55,"","Y","",">140",168,2,141,null,"DAYS",5054],["CDISCPILOT01","701","701","01-701-1034","2014-07-01","2014-12-30","Xanomeline High Dose",81,77,"65-80",2,"WHITE",1,"F","Y","Y","Y","Baseline",0,"BASELINE",3,1,"2014-07-01","Maze Solution","ACITM10",10,5,5,null,null,"Y","Y","","<=1",1,0,null,1,"DAYS",5010],["CDISCPILOT01","701","701","01-701-1034","2014-07-01","2014-12-30","Xanomeline High Dose",81,77,"65-80",2,"WHITE",1,"F","Y","Y","Y","Week 8",8,"WEEK 8",8,57,"2014-08-26","Maze Solution","ACITM10",10,4,5,-1,-20,"","Y","","2-84",56,1,2,84,"DAYS",5025],["CDISCPILOT01","701","701","01-701-1034","2014-07-01","2014-12-30","Xanomeline High Dose",81,77,"65-80",2,"WHITE",1,"F","Y","Y","Y","Week 16",16,"WEEK 16",10,113,"2014-10-21","Maze Solution","ACITM10",10,5,5,0,0,"","Y","","85-140",112,1,85,140,"DAYS",5040],["CDISCPILOT01","701","701","01-701-1034","2014-07-01","2014-12-30","Xanomeline High Dose",81,77,"65-80",2,"WHITE",1,"F","Y","Y","Y","Week 24",24,"WEEK 24",12,170,"2014-12-17","Maze Solution","ACITM10",10,7,5,2,40,"","Y","",">140",168,2,141,null,"DAYS",5055],["CDISCPILOT01","701","701","01-701-1034","2014-07-01","2014-12-30","Xanomeline High Dose",81,77,"65-80",2,"WHITE",1,"F","Y","Y","Y","Baseline",0,"BASELINE",3,1,"2014-07-01","Spoken Language Ability","ACITM11",11,0,0,null,null,"Y","Y","","<=1",1,0,null,1,"DAYS",5011],["CDISCPILOT01","701","701","01-701-1034","2014-07-01","2014-12-30","Xanomeline High Dose",81,77,"65-80",2,"WHITE",1,"F","Y","Y","Y","Week 8",8,"WEEK 8",8,57,"2014-08-26","Spoken Language Ability","ACITM11",11,0,0,0,null,"","Y","","2-84",56,1,2,84,"DAYS",5026],["CDISCPILOT01","701","701","01-701-1034","2014-07-01","2014-12-30","Xanomeline High Dose",81,77,"65-80",2,"WHITE",1,"F","Y","Y","Y","Week 16",16,"WEEK 16",10,113,"2014-10-21","Spoken Language Ability","ACITM11",11,0,0,0,null,"","Y","","85-140",112,1,85,140,"DAYS",5041],["CDISCPILOT01","701","701","01-701-1034","2014-07-01","2014-12-30","Xanomeline High Dose",81,77,"65-80",2,"WHITE",1,"F","Y","Y","Y","Week 24",24,"WEEK 24",12,170,"2014-12-17","Spoken Language Ability","ACITM11",11,0,0,0,null,"","Y","",">140",168,2,141,null,"DAYS",5056],["CDISCPILOT01","701","701","01-701-1034","2014-07-01","2014-12-30","Xanomeline High Dose",81,77,"65-80",2,"WHITE",1,"F","Y","Y","Y","Baseline",0,"BASELINE",3,1,"2014-07-01","Comprehension Of Spoken Language","ACITM12",12,0,0,null,null,"Y","Y","","<=1",1,0,null,1,"DAYS",5012],["CDISCPILOT01","701","701","01-701-1034","2014-07-01","2014-12-30","Xanomeline High Dose",81,77,"65-80",2,"WHITE",1,"F","Y","Y","Y","Week 8",8,"WEEK 8",8,57,"2014-08-26","Comprehension Of Spoken Language","ACITM12",12,0,0,0,null,"","Y","","2-84",56,1,2,84,"DAYS",5027],["CDISCPILOT01","701","701","01-701-1034","2014-07-01","2014-12-30","Xanomeline High Dose",81,77,"65-80",2,"WHITE",1,"F","Y","Y","Y","Week 16",16,"WEEK 16",10,113,"2014-10-21","Comprehension Of Spoken Language","ACITM12",12,0,0,0,null,"","Y","","85-140",112,1,85,140,"DAYS",5042],["CDISCPILOT01","701","701","01-701-1034","2014-07-01","2014-12-30","Xanomeline High Dose",81,77,"65-80",2,"WHITE",1,"F","Y","Y","Y","Week 24",24,"WEEK 24",12,170,"2014-12-17","Comprehension Of Spoken Language","ACITM12",12,0,0,0,null,"","Y","",">140",168,2,141,null,"DAYS",5057],["CDISCPILOT01","701","701","01-701-1034","2014-07-01","2014-12-30","Xanomeline High Dose",81,77,"65-80",2,"WHITE",1,"F","Y","Y","Y","Baseline",0,"BASELINE",3,1,"2014-07-01","Word Finding Difficulty In Spontaneous S","ACITM13",13,0,0,null,null,"Y","Y","","<=1",1,0,null,1,"DAYS",5013],["CDISCPILOT01","701","701","01-701-1034","2014-07-01","2014-12-30","Xanomeline High Dose",81,77,"65-80",2,"WHITE",1,"F","Y","Y","Y","Week 8",8,"WEEK 8",8,57,"2014-08-26","Word Finding Difficulty In Spontaneous S","ACITM13",13,1,0,1,null,"","Y","","2-84",56,1,2,84,"DAYS",5028],["CDISCPILOT01","701","701","01-701-1034","2014-07-01","2014-12-30","Xanomeline High Dose",81,77,"65-80",2,"WHITE",1,"F","Y","Y","Y","Week 16",16,"WEEK 16",10,113,"2014-10-21","Word Finding Difficulty In Spontaneous S","ACITM13",13,0,0,0,null,"","Y","","85-140",112,1,85,140,"DAYS",5043],["CDISCPILOT01","701","701","01-701-1034","2014-07-01","2014-12-30","Xanomeline High Dose",81,77,"65-80",2,"WHITE",1,"F","Y","Y","Y","Week 24",24,"WEEK 24",12,170,"2014-12-17","Word Finding Difficulty In Spontaneous S","ACITM13",13,0,0,0,null,"","Y","",">140",168,2,141,null,"DAYS",5058],["CDISCPILOT01","701","701","01-701-1034","2014-07-01","2014-12-30","Xanomeline High Dose",81,77,"65-80",2,"WHITE",1,"F","Y","Y","Y","Baseline",0,"BASELINE",3,1,"2014-07-01","Recall Of Test Instructions","ACITM14",14,0,0,null,null,"Y","Y","","<=1",1,0,null,1,"DAYS",5014],["CDISCPILOT01","701","701","01-701-1034","2014-07-01","2014-12-30","Xanomeline High Dose",81,77,"65-80",2,"WHITE",1,"F","Y","Y","Y","Week 8",8,"WEEK 8",8,57,"2014-08-26","Recall Of Test Instructions","ACITM14",14,0,0,0,null,"","Y","","2-84",56,1,2,84,"DAYS",5029],["CDISCPILOT01","701","701","01-701-1034","2014-07-01","2014-12-30","Xanomeline High Dose",81,77,"65-80",2,"WHITE",1,"F","Y","Y","Y","Week 16",16,"WEEK 16",10,113,"2014-10-21","Recall Of Test Instructions","ACITM14",14,0,0,0,null,"","Y","","85-140",112,1,85,140,"DAYS",5044],["CDISCPILOT01","701","701","01-701-1034","2014-07-01","2014-12-30","Xanomeline High Dose",81,77,"65-80",2,"WHITE",1,"F","Y","Y","Y","Week 24",24,"WEEK 24",12,170,"2014-12-17","Recall Of Test Instructions","ACITM14",14,0,0,0,null,"","Y","",">140",168,2,141,null,"DAYS",5059],["CDISCPILOT01","701","701","01-701-1034","2014-07-01","2014-12-30","Xanomeline High Dose",81,77,"65-80",2,"WHITE",1,"F","Y","Y","Y","Baseline",0,"BASELINE",3,1,"2014-07-01","Adas-Cog(11) Subscore","ACTOT",15,11,11,null,null,"Y","Y","","<=1",1,0,null,1,"DAYS",5015],["CDISCPILOT01","701","701","01-701-1034","2014-07-01","2014-12-30","Xanomeline High Dose",81,77,"65-80",2,"WHITE",1,"F","Y","Y","Y","Week 8",8,"WEEK 8",8,57,"2014-08-26","Adas-Cog(11) Subscore","ACTOT",15,12,11,1,9.09090909091,"","Y","","2-84",56,1,2,84,"DAYS",5030],["CDISCPILOT01","701","701","01-701-1034","2014-07-01","2014-12-30","Xanomeline High Dose",81,77,"65-80",2,"WHITE",1,"F","Y","Y","Y","Week 16",16,"WEEK 16",10,113,"2014-10-21","Adas-Cog(11) Subscore","ACTOT",15,14,11,3,27.2727272727,"","Y","","85-140",112,1,85,140,"DAYS",5045],["CDISCPILOT01","701","701","01-701-1034","2014-07-01","2014-12-30","Xanomeline High Dose",81,77,"65-80",2,"WHITE",1,"F","Y","Y","Y","Week 24",24,"WEEK 24",12,170,"2014-12-17","Adas-Cog(11) Subscore","ACTOT",15,11,11,0,0,"","Y","",">140",168,2,141,null,"DAYS",5060],["CDISCPILOT01","701","701","01-701-1047","2013-02-12","2013-03-09","Placebo",0,85,">80",3,"WHITE",1,"F","Y","Y","N","Baseline",0,"BASELINE",3,1,"2013-02-12","Word Recall Task","ACITM01",1,6,6,null,null,"Y","Y","","<=1",1,0,null,1,"DAYS",5001],["CDISCPILOT01","701","701","01-701-1047","2013-02-12","2013-03-09","Placebo",0,85,">80",3,"WHITE",1,"F","Y","Y","N","Week 8",8,"AMBUL ECG REMOVAL",6,46,"2013-03-29","Word Recall Task","ACITM01",1,7,6,1,16.6666666667,"","Y","","2-84",56,10,2,84,"DAYS",5016],["CDISCPILOT01","701","701","01-701-1047","2013-02-12","2013-03-09","Placebo",0,85,">80",3,"WHITE",1,"F","Y","Y","N","Week 24",24,"RETRIEVAL",201,167,"2013-07-28","Word Recall Task","ACITM01",1,7,6,1,16.6666666667,"","Y","",">140",168,1,141,null,"DAYS",5031],["CDISCPILOT01","701","701","01-701-1047","2013-02-12","2013-03-09","Placebo",0,85,">80",3,"WHITE",1,"F","Y","Y","N","Baseline",0,"BASELINE",3,1,"2013-02-12","Naming Objects And Fingers (Refer To 5 C","ACITM02",2,0,0,null,null,"Y","Y","","<=1",1,0,null,1,"DAYS",5002],["CDISCPILOT01","701","701","01-701-1047","2013-02-12","2013-03-09","Placebo",0,85,">80",3,"WHITE",1,"F","Y","Y","N","Week 8",8,"AMBUL ECG REMOVAL",6,46,"2013-03-29","Naming Objects And Fingers (Refer To 5 C","ACITM02",2,0,0,0,null,"","Y","","2-84",56,10,2,84,"DAYS",5017],["CDISCPILOT01","701","701","01-701-1047","2013-02-12","2013-03-09","Placebo",0,85,">80",3,"WHITE",1,"F","Y","Y","N","Week 24",24,"RETRIEVAL",201,167,"2013-07-28","Naming Objects And Fingers (Refer To 5 C","ACITM02",2,0,0,0,null,"","Y","",">140",168,1,141,null,"DAYS",5032],["CDISCPILOT01","701","701","01-701-1047","2013-02-12","2013-03-09","Placebo",0,85,">80",3,"WHITE",1,"F","Y","Y","N","Baseline",0,"BASELINE",3,1,"2013-02-12","Delayed Word Recall","ACITM03",3,10,10,null,null,"Y","Y","","<=1",1,0,null,1,"DAYS",5003],["CDISCPILOT01","701","701","01-701-1047","2013-02-12","2013-03-09","Placebo",0,85,">80",3,"WHITE",1,"F","Y","Y","N","Week 8",8,"AMBUL ECG REMOVAL",6,46,"2013-03-29","Delayed Word Recall","ACITM03",3,10,10,0,0,"","Y","","2-84",56,10,2,84,"DAYS",5018],["CDISCPILOT01","701","701","01-701-1047","2013-02-12","2013-03-09","Placebo",0,85,">80",3,"WHITE",1,"F","Y","Y","N","Week 24",24,"RETRIEVAL",201,167,"2013-07-28","Delayed Word Recall","ACITM03",3,10,10,0,0,"","Y","",">140",168,1,141,null,"DAYS",5033],["CDISCPILOT01","701","701","01-701-1047","2013-02-12","2013-03-09","Placebo",0,85,">80",3,"WHITE",1,"F","Y","Y","N","Baseline",0,"BASELINE",3,1,"2013-02-12","Commands","ACITM04",4,0,0,null,null,"Y","Y","","<=1",1,0,null,1,"DAYS",5004],["CDISCPILOT01","701","701","01-701-1047","2013-02-12","2013-03-09","Placebo",0,85,">80",3,"WHITE",1,"F","Y","Y","N","Week 8",8,"AMBUL ECG REMOVAL",6,46,"2013-03-29","Commands","ACITM04",4,0,0,0,null,"","Y","","2-84",56,10,2,84,"DAYS",5019],["CDISCPILOT01","701","701","01-701-1047","2013-02-12","2013-03-09","Placebo",0,85,">80",3,"WHITE",1,"F","Y","Y","N","Week 24",24,"RETRIEVAL",201,167,"2013-07-28","Commands","ACITM04",4,0,0,0,null,"","Y","",">140",168,1,141,null,"DAYS",5034],["CDISCPILOT01","701","701","01-701-1047","2013-02-12","2013-03-09","Placebo",0,85,">80",3,"WHITE",1,"F","Y","Y","N","Baseline",0,"BASELINE",3,1,"2013-02-12","Constructional Praxis","ACITM05",5,1,1,null,null,"Y","Y","","<=1",1,0,null,1,"DAYS",5005],["CDISCPILOT01","701","701","01-701-1047","2013-02-12","2013-03-09","Placebo",0,85,">80",3,"WHITE",1,"F","Y","Y","N","Week 8",8,"AMBUL ECG REMOVAL",6,46,"2013-03-29","Constructional Praxis","ACITM05",5,0,1,-1,-100,"","Y","","2-84",56,10,2,84,"DAYS",5020],["CDISCPILOT01","701","701","01-701-1047","2013-02-12","2013-03-09","Placebo",0,85,">80",3,"WHITE",1,"F","Y","Y","N","Week 24",24,"RETRIEVAL",201,167,"2013-07-28","Constructional Praxis","ACITM05",5,1,1,0,0,"","Y","",">140",168,1,141,null,"DAYS",5035],["CDISCPILOT01","701","701","01-701-1047","2013-02-12","2013-03-09","Placebo",0,85,">80",3,"WHITE",1,"F","Y","Y","N","Baseline",0,"BASELINE",3,1,"2013-02-12","Ideational Praxis","ACITM06",6,0,0,null,null,"Y","Y","","<=1",1,0,null,1,"DAYS",5006],["CDISCPILOT01","701","701","01-701-1047","2013-02-12","2013-03-09","Placebo",0,85,">80",3,"WHITE",1,"F","Y","Y","N","Week 8",8,"AMBUL ECG REMOVAL",6,46,"2013-03-29","Ideational Praxis","ACITM06",6,1,0,1,null,"","Y","","2-84",56,10,2,84,"DAYS",5021],["CDISCPILOT01","701","701","01-701-1047","2013-02-12","2013-03-09","Placebo",0,85,">80",3,"WHITE",1,"F","Y","Y","N","Week 24",24,"RETRIEVAL",201,167,"2013-07-28","Ideational Praxis","ACITM06",6,0,0,0,null,"","Y","",">140",168,1,141,null,"DAYS",5036],["CDISCPILOT01","701","701","01-701-1047","2013-02-12","2013-03-09","Placebo",0,85,">80",3,"WHITE",1,"F","Y","Y","N","Baseline",0,"BASELINE",3,1,"2013-02-12","Orientation","ACITM07",7,0,0,null,null,"Y","Y","","<=1",1,0,null,1,"DAYS",5007],["CDISCPILOT01","701","701","01-701-1047","2013-02-12","2013-03-09","Placebo",0,85,">80",3,"WHITE",1,"F","Y","Y","N","Week 8",8,"AMBUL ECG REMOVAL",6,46,"2013-03-29","Orientation","ACITM07",7,1,0,1,null,"","Y","","2-84",56,10,2,84,"DAYS",5022],["CDISCPILOT01","701","701","01-701-1047","2013-02-12","2013-03-09","Placebo",0,85,">80",3,"WHITE",1,"F","Y","Y","N","Week 24",24,"RETRIEVAL",201,167,"2013-07-28","Orientation","ACITM07",7,2,0,2,null,"","Y","",">140",168,1,141,null,"DAYS",5037],["CDISCPILOT01","701","701","01-701-1047","2013-02-12","2013-03-09","Placebo",0,85,">80",3,"WHITE",1,"F","Y","Y","N","Baseline",0,"BASELINE",3,1,"2013-02-12","Word Recognition","ACITM08",8,3,3,null,null,"Y","Y","","<=1",1,0,null,1,"DAYS",5008],["CDISCPILOT01","701","701","01-701-1047","2013-02-12","2013-03-09","Placebo",0,85,">80",3,"WHITE",1,"F","Y","Y","N","Week 8",8,"AMBUL ECG REMOVAL",6,46,"2013-03-29","Word Recognition","ACITM08",8,5,3,2,66.6666666667,"","Y","","2-84",56,10,2,84,"DAYS",5023],["CDISCPILOT01","701","701","01-701-1047","2013-02-12","2013-03-09","Placebo",0,85,">80",3,"WHITE",1,"F","Y","Y","N","Week 24",24,"RETRIEVAL",201,167,"2013-07-28","Word Recognition","ACITM08",8,3,3,0,0,"","Y","",">140",168,1,141,null,"DAYS",5038],["CDISCPILOT01","701","701","01-701-1047","2013-02-12","2013-03-09","Placebo",0,85,">80",3,"WHITE",1,"F","Y","Y","N","Baseline",0,"BASELINE",3,1,"2013-02-12","Attention/Visual Search Task","ACITM09",9,26,26,null,null,"Y","Y","","<=1",1,0,null,1,"DAYS",5009],["CDISCPILOT01","701","701","01-701-1047","2013-02-12","2013-03-09","Placebo",0,85,">80",3,"WHITE",1,"F","Y","Y","N","Week 8",8,"AMBUL ECG REMOVAL",6,46,"2013-03-29","Attention/Visual Search Task","ACITM09",9,37,26,11,42.3076923077,"","Y","","2-84",56,10,2,84,"DAYS",5024],["CDISCPILOT01","701","701","01-701-1047","2013-02-12","2013-03-09","Placebo",0,85,">80",3,"WHITE",1,"F","Y","Y","N","Week 24",24,"RETRIEVAL",201,167,"2013-07-28","Attention/Visual Search Task","ACITM09",9,33,26,7,26.9230769231,"","Y","",">140",168,1,141,null,"DAYS",5039],["CDISCPILOT01","701","701","01-701-1047","2013-02-12","2013-03-09","Placebo",0,85,">80",3,"WHITE",1,"F","Y","Y","N","Baseline",0,"BASELINE",3,1,"2013-02-12","Maze Solution","ACITM10",10,7,7,null,null,"Y","Y","","<=1",1,0,null,1,"DAYS",5010],["CDISCPILOT01","701","701","01-701-1047","2013-02-12","2013-03-09","Placebo",0,85,">80",3,"WHITE",1,"F","Y","Y","N","Week 8",8,"AMBUL ECG REMOVAL",6,46,"2013-03-29","Maze Solution","ACITM10",10,5,7,-2,-28.5714285714,"","Y","","2-84",56,10,2,84,"DAYS",5025],["CDISCPILOT01","701","701","01-701-1047","2013-02-12","2013-03-09","Placebo",0,85,">80",3,"WHITE",1,"F","Y","Y","N","Week 24",24,"RETRIEVAL",201,167,"2013-07-28","Maze Solution","ACITM10",10,5,7,-2,-28.5714285714,"","Y","",">140",168,1,141,null,"DAYS",5040],["CDISCPILOT01","701","701","01-701-1047","2013-02-12","2013-03-09","Placebo",0,85,">80",3,"WHITE",1,"F","Y","Y","N","Baseline",0,"BASELINE",3,1,"2013-02-12","Spoken Language Ability","ACITM11",11,0,0,null,null,"Y","Y","","<=1",1,0,null,1,"DAYS",5011],["CDISCPILOT01","701","701","01-701-1047","2013-02-12","2013-03-09","Placebo",0,85,">80",3,"WHITE",1,"F","Y","Y","N","Week 8",8,"AMBUL ECG REMOVAL",6,46,"2013-03-29","Spoken Language Ability","ACITM11",11,0,0,0,null,"","Y","","2-84",56,10,2,84,"DAYS",5026],["CDISCPILOT01","701","701","01-701-1047","2013-02-12","2013-03-09","Placebo",0,85,">80",3,"WHITE",1,"F","Y","Y","N","Week 24",24,"RETRIEVAL",201,167,"2013-07-28","Spoken Language Ability","ACITM11",11,1,0,1,null,"","Y","",">140",168,1,141,null,"DAYS",5041],["CDISCPILOT01","701","701","01-701-1047","2013-02-12","2013-03-09","Placebo",0,85,">80",3,"WHITE",1,"F","Y","Y","N","Baseline",0,"BASELINE",3,1,"2013-02-12","Comprehension Of Spoken Language","ACITM12",12,0,0,null,null,"Y","Y","","<=1",1,0,null,1,"DAYS",5012],["CDISCPILOT01","701","701","01-701-1047","2013-02-12","2013-03-09","Placebo",0,85,">80",3,"WHITE",1,"F","Y","Y","N","Week 8",8,"AMBUL ECG REMOVAL",6,46,"2013-03-29","Comprehension Of Spoken Language","ACITM12",12,0,0,0,null,"","Y","","2-84",56,10,2,84,"DAYS",5027],["CDISCPILOT01","701","701","01-701-1047","2013-02-12","2013-03-09","Placebo",0,85,">80",3,"WHITE",1,"F","Y","Y","N","Week 24",24,"RETRIEVAL",201,167,"2013-07-28","Comprehension Of Spoken Language","ACITM12",12,2,0,2,null,"","Y","",">140",168,1,141,null,"DAYS",5042],["CDISCPILOT01","701","701","01-701-1047","2013-02-12","2013-03-09","Placebo",0,85,">80",3,"WHITE",1,"F","Y","Y","N","Baseline",0,"BASELINE",3,1,"2013-02-12","Word Finding Difficulty In Spontaneous S","ACITM13",13,0,0,null,null,"Y","Y","","<=1",1,0,null,1,"DAYS",5013],["CDISCPILOT01","701","701","01-701-1047","2013-02-12","2013-03-09","Placebo",0,85,">80",3,"WHITE",1,"F","Y","Y","N","Week 8",8,"AMBUL ECG REMOVAL",6,46,"2013-03-29","Word Finding Difficulty In Spontaneous S","ACITM13",13,0,0,0,null,"","Y","","2-84",56,10,2,84,"DAYS",5028],["CDISCPILOT01","701","701","01-701-1047","2013-02-12","2013-03-09","Placebo",0,85,">80",3,"WHITE",1,"F","Y","Y","N","Week 24",24,"RETRIEVAL",201,167,"2013-07-28","Word Finding Difficulty In Spontaneous S","ACITM13",13,1,0,1,null,"","Y","",">140",168,1,141,null,"DAYS",5043],["CDISCPILOT01","701","701","01-701-1047","2013-02-12","2013-03-09","Placebo",0,85,">80",3,"WHITE",1,"F","Y","Y","N","Baseline",0,"BASELINE",3,1,"2013-02-12","Recall Of Test Instructions","ACITM14",14,0,0,null,null,"Y","Y","","<=1",1,0,null,1,"DAYS",5014],["CDISCPILOT01","701","701","01-701-1047","2013-02-12","2013-03-09","Placebo",0,85,">80",3,"WHITE",1,"F","Y","Y","N","Week 8",8,"AMBUL ECG REMOVAL",6,46,"2013-03-29","Recall Of Test Instructions","ACITM14",14,0,0,0,null,"","Y","","2-84",56,10,2,84,"DAYS",5029],["CDISCPILOT01","701","701","01-701-1047","2013-02-12","2013-03-09","Placebo",0,85,">80",3,"WHITE",1,"F","Y","Y","N","Week 24",24,"RETRIEVAL",201,167,"2013-07-28","Recall Of Test Instructions","ACITM14",14,2,0,2,null,"","Y","",">140",168,1,141,null,"DAYS",5044],["CDISCPILOT01","701","701","01-701-1047","2013-02-12","2013-03-09","Placebo",0,85,">80",3,"WHITE",1,"F","Y","Y","N","Baseline",0,"BASELINE",3,1,"2013-02-12","Adas-Cog(11) Subscore","ACTOT",15,10,10,null,null,"Y","Y","","<=1",1,0,null,1,"DAYS",5015],["CDISCPILOT01","701","701","01-701-1047","2013-02-12","2013-03-09","Placebo",0,85,">80",3,"WHITE",1,"F","Y","Y","N","Week 8",8,"AMBUL ECG REMOVAL",6,46,"2013-03-29","Adas-Cog(11) Subscore","ACTOT",15,14,10,4,40,"","Y","","2-84",56,10,2,84,"DAYS",5030],["CDISCPILOT01","701","701","01-701-1047","2013-02-12","2013-03-09","Placebo",0,85,">80",3,"WHITE",1,"F","Y","Y","N","Week 16",16,"AMBUL ECG REMOVAL",6,46,"2013-03-29","Adas-Cog(11) Subscore","ACTOT",15,14,10,4,40,"","Y","LOCF","85-140",112,66,85,140,"DAYS",5030],["CDISCPILOT01","701","701","01-701-1047","2013-02-12","2013-03-09","Placebo",0,85,">80",3,"WHITE",1,"F","Y","Y","N","Week 24",24,"RETRIEVAL",201,167,"2013-07-28","Adas-Cog(11) Subscore","ACTOT",15,19,10,9,90,"","Y","",">140",168,1,141,null,"DAYS",5045],["CDISCPILOT01","701","701","01-701-1097","2014-01-01","2014-07-09","Xanomeline Low Dose",54,68,"65-80",2,"WHITE",1,"M","Y","Y","Y","Baseline",0,"BASELINE",3,1,"2014-01-01","Word Recall Task","ACITM01",1,10,10,null,null,"Y","Y","","<=1",1,0,null,1,"DAYS",5001],["CDISCPILOT01","701","701","01-701-1097","2014-01-01","2014-07-09","Xanomeline Low Dose",54,68,"65-80",2,"WHITE",1,"M","Y","Y","Y","Week 8",8,"WEEK 8",8,57,"2014-02-26","Word Recall Task","ACITM01",1,9,10,-1,-10,"","Y","","2-84",56,1,2,84,"DAYS",5016],["CDISCPILOT01","701","701","01-701-1097","2014-01-01","2014-07-09","Xanomeline Low Dose",54,68,"65-80",2,"WHITE",1,"M","Y","Y","Y","Week 16",16,"WEEK 16",10,113,"2014-04-23","Word Recall Task","ACITM01",1,9,10,-1,-10,"","Y","","85-140",112,1,85,140,"DAYS",5031],["CDISCPILOT01","701","701","01-701-1097","2014-01-01","2014-07-09","Xanomeline Low Dose",54,68,"65-80",2,"WHITE",1,"M","Y","Y","Y","Week 24",24,"WEEK 24",12,169,"2014-06-18","Word Recall Task","ACITM01",1,9,10,-1,-10,"","Y","",">140",168,1,141,null,"DAYS",5046],["CDISCPILOT01","701","701","01-701-1097","2014-01-01","2014-07-09","Xanomeline Low Dose",54,68,"65-80",2,"WHITE",1,"M","Y","Y","Y","Baseline",0,"BASELINE",3,1,"2014-01-01","Naming Objects And Fingers (Refer To 5 C","ACITM02",2,5,5,null,null,"Y","Y","","<=1",1,0,null,1,"DAYS",5002],["CDISCPILOT01","701","701","01-701-1097","2014-01-01","2014-07-09","Xanomeline Low Dose",54,68,"65-80",2,"WHITE",1,"M","Y","Y","Y","Week 8",8,"WEEK 8",8,57,"2014-02-26","Naming Objects And Fingers (Refer To 5 C","ACITM02",2,5,5,0,0,"","Y","","2-84",56,1,2,84,"DAYS",5017],["CDISCPILOT01","701","701","01-701-1097","2014-01-01","2014-07-09","Xanomeline Low Dose",54,68,"65-80",2,"WHITE",1,"M","Y","Y","Y","Week 16",16,"WEEK 16",10,113,"2014-04-23","Naming Objects And Fingers (Refer To 5 C","ACITM02",2,5,5,0,0,"","Y","","85-140",112,1,85,140,"DAYS",5032],["CDISCPILOT01","701","701","01-701-1097","2014-01-01","2014-07-09","Xanomeline Low Dose",54,68,"65-80",2,"WHITE",1,"M","Y","Y","Y","Week 24",24,"WEEK 24",12,169,"2014-06-18","Naming Objects And Fingers (Refer To 5 C","ACITM02",2,5,5,0,0,"","Y","",">140",168,1,141,null,"DAYS",5047],["CDISCPILOT01","701","701","01-701-1097","2014-01-01","2014-07-09","Xanomeline Low Dose",54,68,"65-80",2,"WHITE",1,"M","Y","Y","Y","Baseline",0,"BASELINE",3,1,"2014-01-01","Delayed Word Recall","ACITM03",3,10,10,null,null,"Y","Y","","<=1",1,0,null,1,"DAYS",5003],["CDISCPILOT01","701","701","01-701-1097","2014-01-01","2014-07-09","Xanomeline Low Dose",54,68,"65-80",2,"WHITE",1,"M","Y","Y","Y","Week 8",8,"WEEK 8",8,57,"2014-02-26","Delayed Word Recall","ACITM03",3,10,10,0,0,"","Y","","2-84",56,1,2,84,"DAYS",5018],["CDISCPILOT01","701","701","01-701-1097","2014-01-01","2014-07-09","Xanomeline Low Dose",54,68,"65-80",2,"WHITE",1,"M","Y","Y","Y","Week 16",16,"WEEK 16",10,113,"2014-04-23","Delayed Word Recall","ACITM03",3,10,10,0,0,"","Y","","85-140",112,1,85,140,"DAYS",5033],["CDISCPILOT01","701","701","01-701-1097","2014-01-01","2014-07-09","Xanomeline Low Dose",54,68,"65-80",2,"WHITE",1,"M","Y","Y","Y","Week 24",24,"WEEK 24",12,169,"2014-06-18","Delayed Word Recall","ACITM03",3,10,10,0,0,"","Y","",">140",168,1,141,null,"DAYS",5048],["CDISCPILOT01","701","701","01-701-1097","2014-01-01","2014-07-09","Xanomeline Low Dose",54,68,"65-80",2,"WHITE",1,"M","Y","Y","Y","Baseline",0,"BASELINE",3,1,"2014-01-01","Commands","ACITM04",4,3,3,null,null,"Y","Y","","<=1",1,0,null,1,"DAYS",5004],["CDISCPILOT01","701","701","01-701-1097","2014-01-01","2014-07-09","Xanomeline Low Dose",54,68,"65-80",2,"WHITE",1,"M","Y","Y","Y","Week 8",8,"WEEK 8",8,57,"2014-02-26","Commands","ACITM04",4,1,3,-2,-66.6666666667,"","Y","","2-84",56,1,2,84,"DAYS",5019],["CDISCPILOT01","701","701","01-701-1097","2014-01-01","2014-07-09","Xanomeline Low Dose",54,68,"65-80",2,"WHITE",1,"M","Y","Y","Y","Week 16",16,"WEEK 16",10,113,"2014-04-23","Commands","ACITM04",4,1,3,-2,-66.6666666667,"","Y","","85-140",112,1,85,140,"DAYS",5034],["CDISCPILOT01","701","701","01-701-1097","2014-01-01","2014-07-09","Xanomeline Low Dose",54,68,"65-80",2,"WHITE",1,"M","Y","Y","Y","Week 24",24,"WEEK 24",12,169,"2014-06-18","Commands","ACITM04",4,3,3,0,0,"","Y","",">140",168,1,141,null,"DAYS",5049],["CDISCPILOT01","701","701","01-701-1097","2014-01-01","2014-07-09","Xanomeline Low Dose",54,68,"65-80",2,"WHITE",1,"M","Y","Y","Y","Baseline",0,"BASELINE",3,1,"2014-01-01","Constructional Praxis","ACITM05",5,4,4,null,null,"Y","Y","","<=1",1,0,null,1,"DAYS",5005],["CDISCPILOT01","701","701","01-701-1097","2014-01-01","2014-07-09","Xanomeline Low Dose",54,68,"65-80",2,"WHITE",1,"M","Y","Y","Y","Week 8",8,"WEEK 8",8,57,"2014-02-26","Constructional Praxis","ACITM05",5,3,4,-1,-25,"","Y","","2-84",56,1,2,84,"DAYS",5020],["CDISCPILOT01","701","701","01-701-1097","2014-01-01","2014-07-09","Xanomeline Low Dose",54,68,"65-80",2,"WHITE",1,"M","Y","Y","Y","Week 16",16,"WEEK 16",10,113,"2014-04-23","Constructional Praxis","ACITM05",5,4,4,0,0,"","Y","","85-140",112,1,85,140,"DAYS",5035],["CDISCPILOT01","701","701","01-701-1097","2014-01-01","2014-07-09","Xanomeline Low Dose",54,68,"65-80",2,"WHITE",1,"M","Y","Y","Y","Week 24",24,"WEEK 24",12,169,"2014-06-18","Constructional Praxis","ACITM05",5,2,4,-2,-50,"","Y","",">140",168,1,141,null,"DAYS",5050],["CDISCPILOT01","701","701","01-701-1097","2014-01-01","2014-07-09","Xanomeline Low Dose",54,68,"65-80",2,"WHITE",1,"M","Y","Y","Y","Baseline",0,"BASELINE",3,1,"2014-01-01","Ideational Praxis","ACITM06",6,5,5,null,null,"Y","Y","","<=1",1,0,null,1,"DAYS",5006],["CDISCPILOT01","701","701","01-701-1097","2014-01-01","2014-07-09","Xanomeline Low Dose",54,68,"65-80",2,"WHITE",1,"M","Y","Y","Y","Week 8",8,"WEEK 8",8,57,"2014-02-26","Ideational Praxis","ACITM06",6,4,5,-1,-20,"","Y","","2-84",56,1,2,84,"DAYS",5021],["CDISCPILOT01","701","701","01-701-1097","2014-01-01","2014-07-09","Xanomeline Low Dose",54,68,"65-80",2,"WHITE",1,"M","Y","Y","Y","Week 16",16,"WEEK 16",10,113,"2014-04-23","Ideational Praxis","ACITM06",6,4,5,-1,-20,"","Y","","85-140",112,1,85,140,"DAYS",5036],["CDISCPILOT01","701","701","01-701-1097","2014-01-01","2014-07-09","Xanomeline Low Dose",54,68,"65-80",2,"WHITE",1,"M","Y","Y","Y","Week 24",24,"WEEK 24",12,169,"2014-06-18","Ideational Praxis","ACITM06",6,5,5,0,0,"","Y","",">140",168,1,141,null,"DAYS",5051],["CDISCPILOT01","701","701","01-701-1097","2014-01-01","2014-07-09","Xanomeline Low Dose",54,68,"65-80",2,"WHITE",1,"M","Y","Y","Y","Baseline",0,"BASELINE",3,1,"2014-01-01","Orientation","ACITM07",7,7,7,null,null,"Y","Y","","<=1",1,0,null,1,"DAYS",5007],["CDISCPILOT01","701","701","01-701-1097","2014-01-01","2014-07-09","Xanomeline Low Dose",54,68,"65-80",2,"WHITE",1,"M","Y","Y","Y","Week 8",8,"WEEK 8",8,57,"2014-02-26","Orientation","ACITM07",7,7,7,0,0,"","Y","","2-84",56,1,2,84,"DAYS",5022],["CDISCPILOT01","701","701","01-701-1097","2014-01-01","2014-07-09","Xanomeline Low Dose",54,68,"65-80",2,"WHITE",1,"M","Y","Y","Y","Week 16",16,"WEEK 16",10,113,"2014-04-23","Orientation","ACITM07",7,7,7,0,0,"","Y","","85-140",112,1,85,140,"DAYS",5037],["CDISCPILOT01","701","701","01-701-1097","2014-01-01","2014-07-09","Xanomeline Low Dose",54,68,"65-80",2,"WHITE",1,"M","Y","Y","Y","Week 24",24,"WEEK 24",12,169,"2014-06-18","Orientation","ACITM07",7,7,7,0,0,"","Y","",">140",168,1,141,null,"DAYS",5052],["CDISCPILOT01","701","701","01-701-1097","2014-01-01","2014-07-09","Xanomeline Low Dose",54,68,"65-80",2,"WHITE",1,"M","Y","Y","Y","Baseline",0,"BASELINE",3,1,"2014-01-01","Word Recognition","ACITM08",8,null,null,null,null,"Y","Y","","<=1",1,0,null,1,"DAYS",5008],["CDISCPILOT01","701","701","01-701-1097","2014-01-01","2014-07-09","Xanomeline Low Dose",54,68,"65-80",2,"WHITE",1,"M","Y","Y","Y","Week 8",8,"WEEK 8",8,57,"2014-02-26","Word Recognition","ACITM08",8,12,null,null,null,"","Y","","2-84",56,1,2,84,"DAYS",5023],["CDISCPILOT01","701","701","01-701-1097","2014-01-01","2014-07-09","Xanomeline Low Dose",54,68,"65-80",2,"WHITE",1,"M","Y","Y","Y","Week 16",16,"WEEK 16",10,113,"2014-04-23","Word Recognition","ACITM08",8,10,null,null,null,"","Y","","85-140",112,1,85,140,"DAYS",5038],["CDISCPILOT01","701","701","01-701-1097","2014-01-01","2014-07-09","Xanomeline Low Dose",54,68,"65-80",2,"WHITE",1,"M","Y","Y","Y","Week 24",24,"WEEK 24",12,169,"2014-06-18","Word Recognition","ACITM08",8,9,null,null,null,"","Y","",">140",168,1,141,null,"DAYS",5053],["CDISCPILOT01","701","701","01-701-1097","2014-01-01","2014-07-09","Xanomeline Low Dose",54,68,"65-80",2,"WHITE",1,"M","Y","Y","Y","Baseline",0,"BASELINE",3,1,"2014-01-01","Attention/Visual Search Task","ACITM09",9,0,0,null,null,"Y","Y","","<=1",1,0,null,1,"DAYS",5009],["CDISCPILOT01","701","701","01-701-1097","2014-01-01","2014-07-09","Xanomeline Low Dose",54,68,"65-80",2,"WHITE",1,"M","Y","Y","Y","Week 8",8,"WEEK 8",8,57,"2014-02-26","Attention/Visual Search Task","ACITM09",9,5,0,5,null,"","Y","","2-84",56,1,2,84,"DAYS",5024],["CDISCPILOT01","701","701","01-701-1097","2014-01-01","2014-07-09","Xanomeline Low Dose",54,68,"65-80",2,"WHITE",1,"M","Y","Y","Y","Week 16",16,"WEEK 16",10,113,"2014-04-23","Attention/Visual Search Task","ACITM09",9,4,0,4,null,"","Y","","85-140",112,1,85,140,"DAYS",5039],["CDISCPILOT01","701","701","01-701-1097","2014-01-01","2014-07-09","Xanomeline Low Dose",54,68,"65-80",2,"WHITE",1,"M","Y","Y","Y","Week 24",24,"WEEK 24",12,169,"2014-06-18","Attention/Visual Search Task","ACITM09",9,5,0,5,null,"","Y","",">140",168,1,141,null,"DAYS",5054],["CDISCPILOT01","701","701","01-701-1097","2014-01-01","2014-07-09","Xanomeline Low Dose",54,68,"65-80",2,"WHITE",1,"M","Y","Y","Y","Baseline",0,"BASELINE",3,1,"2014-01-01","Maze Solution","ACITM10",10,240,240,null,null,"Y","Y","","<=1",1,0,null,1,"DAYS",5010],["CDISCPILOT01","701","701","01-701-1097","2014-01-01","2014-07-09","Xanomeline Low Dose",54,68,"65-80",2,"WHITE",1,"M","Y","Y","Y","Week 8",8,"WEEK 8",8,57,"2014-02-26","Maze Solution","ACITM10",10,240,240,0,0,"","Y","","2-84",56,1,2,84,"DAYS",5025],["CDISCPILOT01","701","701","01-701-1097","2014-01-01","2014-07-09","Xanomeline Low Dose",54,68,"65-80",2,"WHITE",1,"M","Y","Y","Y","Week 16",16,"WEEK 16",10,113,"2014-04-23","Maze Solution","ACITM10",10,41,240,-199,-82.9166666667,"","Y","","85-140",112,1,85,140,"DAYS",5040],["CDISCPILOT01","701","701","01-701-1097","2014-01-01","2014-07-09","Xanomeline Low Dose",54,68,"65-80",2,"WHITE",1,"M","Y","Y","Y","Week 24",24,"WEEK 24",12,169,"2014-06-18","Maze Solution","ACITM10",10,11,240,-229,-95.4166666667,"","Y","",">140",168,1,141,null,"DAYS",5055],["CDISCPILOT01","701","701","01-701-1097","2014-01-01","2014-07-09","Xanomeline Low Dose",54,68,"65-80",2,"WHITE",1,"M","Y","Y","Y","Baseline",0,"BASELINE",3,1,"2014-01-01","Spoken Language Ability","ACITM11",11,3,3,null,null,"Y","Y","","<=1",1,0,null,1,"DAYS",5011],["CDISCPILOT01","701","701","01-701-1097","2014-01-01","2014-07-09","Xanomeline Low Dose",54,68,"65-80",2,"WHITE",1,"M","Y","Y","Y","Week 8",8,"WEEK 8",8,57,"2014-02-26","Spoken Language Ability","ACITM11",11,3,3,0,0,"","Y","","2-84",56,1,2,84,"DAYS",5026],["CDISCPILOT01","701","701","01-701-1097","2014-01-01","2014-07-09","Xanomeline Low Dose",54,68,"65-80",2,"WHITE",1,"M","Y","Y","Y","Week 16",16,"WEEK 16",10,113,"2014-04-23","Spoken Language Ability","ACITM11",11,3,3,0,0,"","Y","","85-140",112,1,85,140,"DAYS",5041],["CDISCPILOT01","701","701","01-701-1097","2014-01-01","2014-07-09","Xanomeline Low Dose",54,68,"65-80",2,"WHITE",1,"M","Y","Y","Y","Week 24",24,"WEEK 24",12,169,"2014-06-18","Spoken Language Ability","ACITM11",11,2,3,-1,-33.3333333333,"","Y","",">140",168,1,141,null,"DAYS",5056],["CDISCPILOT01","701","701","01-701-1097","2014-01-01","2014-07-09","Xanomeline Low Dose",54,68,"65-80",2,"WHITE",1,"M","Y","Y","Y","Baseline",0,"BASELINE",3,1,"2014-01-01","Comprehension Of Spoken Language","ACITM12",12,3,3,null,null,"Y","Y","","<=1",1,0,null,1,"DAYS",5012],["CDISCPILOT01","701","701","01-701-1097","2014-01-01","2014-07-09","Xanomeline Low Dose",54,68,"65-80",2,"WHITE",1,"M","Y","Y","Y","Week 8",8,"WEEK 8",8,57,"2014-02-26","Comprehension Of Spoken Language","ACITM12",12,2,3,-1,-33.3333333333,"","Y","","2-84",56,1,2,84,"DAYS",5027],["CDISCPILOT01","701","701","01-701-1097","2014-01-01","2014-07-09","Xanomeline Low Dose",54,68,"65-80",2,"WHITE",1,"M","Y","Y","Y","Week 16",16,"WEEK 16",10,113,"2014-04-23","Comprehension Of Spoken Language","ACITM12",12,2,3,-1,-33.3333333333,"","Y","","85-140",112,1,85,140,"DAYS",5042],["CDISCPILOT01","701","701","01-701-1097","2014-01-01","2014-07-09","Xanomeline Low Dose",54,68,"65-80",2,"WHITE",1,"M","Y","Y","Y","Week 24",24,"WEEK 24",12,169,"2014-06-18","Comprehension Of Spoken Language","ACITM12",12,3,3,0,0,"","Y","",">140",168,1,141,null,"DAYS",5057],["CDISCPILOT01","701","701","01-701-1097","2014-01-01","2014-07-09","Xanomeline Low Dose",54,68,"65-80",2,"WHITE",1,"M","Y","Y","Y","Baseline",0,"BASELINE",3,1,"2014-01-01","Word Finding Difficulty In Spontaneous S","ACITM13",13,4,4,null,null,"Y","Y","","<=1",1,0,null,1,"DAYS",5013],["CDISCPILOT01","701","701","01-701-1097","2014-01-01","2014-07-09","Xanomeline Low Dose",54,68,"65-80",2,"WHITE",1,"M","Y","Y","Y","Week 8",8,"WEEK 8",8,57,"2014-02-26","Word Finding Difficulty In Spontaneous S","ACITM13",13,4,4,0,0,"","Y","","2-84",56,1,2,84,"DAYS",5028],["CDISCPILOT01","701","701","01-701-1097","2014-01-01","2014-07-09","Xanomeline Low Dose",54,68,"65-80",2,"WHITE",1,"M","Y","Y","Y","Week 16",16,"WEEK 16",10,113,"2014-04-23","Word Finding Difficulty In Spontaneous S","ACITM13",13,2,4,-2,-50,"","Y","","85-140",112,1,85,140,"DAYS",5043],["CDISCPILOT01","701","701","01-701-1097","2014-01-01","2014-07-09","Xanomeline Low Dose",54,68,"65-80",2,"WHITE",1,"M","Y","Y","Y","Week 24",24,"WEEK 24",12,169,"2014-06-18","Word Finding Difficulty In Spontaneous S","ACITM13",13,2,4,-2,-50,"","Y","",">140",168,1,141,null,"DAYS",5058],["CDISCPILOT01","701","701","01-701-1097","2014-01-01","2014-07-09","Xanomeline Low Dose",54,68,"65-80",2,"WHITE",1,"M","Y","Y","Y","Baseline",0,"BASELINE",3,1,"2014-01-01","Recall Of Test Instructions","ACITM14",14,3,3,null,null,"Y","Y","","<=1",1,0,null,1,"DAYS",5014],["CDISCPILOT01","701","701","01-701-1097","2014-01-01","2014-07-09","Xanomeline Low Dose",54,68,"65-80",2,"WHITE",1,"M","Y","Y","Y","Week 8",8,"WEEK 8",8,57,"2014-02-26","Recall Of Test Instructions","ACITM14",14,4,3,1,33.3333333333,"","Y","","2-84",56,1,2,84,"DAYS",5029],["CDISCPILOT01","701","701","01-701-1097","2014-01-01","2014-07-09","Xanomeline Low Dose",54,68,"65-80",2,"WHITE",1,"M","Y","Y","Y","Week 16",16,"WEEK 16",10,113,"2014-04-23","Recall Of Test Instructions","ACITM14",14,2,3,-1,-33.3333333333,"","Y","","85-140",112,1,85,140,"DAYS",5044],["CDISCPILOT01","701","701","01-701-1097","2014-01-01","2014-07-09","Xanomeline Low Dose",54,68,"65-80",2,"WHITE",1,"M","Y","Y","Y","Week 24",24,"WEEK 24",12,169,"2014-06-18","Recall Of Test Instructions","ACITM14",14,4,3,1,33.3333333333,"","Y","",">140",168,1,141,null,"DAYS",5059],["CDISCPILOT01","701","701","01-701-1097","2014-01-01","2014-07-09","Xanomeline Low Dose",54,68,"65-80",2,"WHITE",1,"M","Y","Y","Y","Baseline",0,"BASELINE",3,1,"2014-01-01","Adas-Cog(11) Subscore","ACTOT",15,56.724137931,56.724137931,null,null,"Y","Y","","<=1",1,0,null,1,"DAYS",5015],["CDISCPILOT01","701","701","01-701-1097","2014-01-01","2014-07-09","Xanomeline Low Dose",54,68,"65-80",2,"WHITE",1,"M","Y","Y","Y","Week 8",8,"WEEK 8",8,57,"2014-02-26","Adas-Cog(11) Subscore","ACTOT",15,54,56.724137931,-2.72413793103,-4.80243161094,"","Y","","2-84",56,1,2,84,"DAYS",5030],["CDISCPILOT01","701","701","01-701-1097","2014-01-01","2014-07-09","Xanomeline Low Dose",54,68,"65-80",2,"WHITE",1,"M","Y","Y","Y","Week 16",16,"WEEK 16",10,113,"2014-04-23","Adas-Cog(11) Subscore","ACTOT",15,49,56.724137931,-7.72413793103,-13.6170212766,"","Y","","85-140",112,1,85,140,"DAYS",5045],["CDISCPILOT01","701","701","01-701-1097","2014-01-01","2014-07-09","Xanomeline Low Dose",54,68,"65-80",2,"WHITE",1,"M","Y","Y","Y","Week 24",24,"WEEK 24",12,169,"2014-06-18","Adas-Cog(11) Subscore","ACTOT",15,51,56.724137931,-5.72413793103,-10.0911854103,"","Y","",">140",168,1,141,null,"DAYS",5060],["CDISCPILOT01","701","701","01-701-1111","2012-09-07","2012-09-16","Xanomeline Low Dose",54,81,">80",3,"WHITE",1,"F","Y","Y","N","Baseline",0,"BASELINE",3,1,"2012-09-07","Word Recall Task","ACITM01",1,5,5,null,null,"Y","Y","","<=1",1,0,null,1,"DAYS",5001],["CDISCPILOT01","701","701","01-701-1111","2012-09-07","2012-09-16","Xanomeline Low Dose",54,81,">80",3,"WHITE",1,"F","Y","Y","N","Week 8",8,"WEEK 2",4,11,"2012-09-17","Word Recall Task","ACITM01",1,4,5,-1,-20,"","Y","","2-84",56,45,2,84,"DAYS",5016],["CDISCPILOT01","701","701","01-701-1111","2012-09-07","2012-09-16","Xanomeline Low Dose",54,81,">80",3,"WHITE",1,"F","Y","Y","N","Week 24",24,"RETRIEVAL",201,169,"2013-02-22","Word Recall Task","ACITM01",1,5,5,0,0,"","Y","",">140",168,1,141,null,"DAYS",5031],["CDISCPILOT01","701","701","01-701-1111","2012-09-07","2012-09-16","Xanomeline Low Dose",54,81,">80",3,"WHITE",1,"F","Y","Y","N","Baseline",0,"BASELINE",3,1,"2012-09-07","Naming Objects And Fingers (Refer To 5 C","ACITM02",2,0,0,null,null,"Y","Y","","<=1",1,0,null,1,"DAYS",5002],["CDISCPILOT01","701","701","01-701-1111","2012-09-07","2012-09-16","Xanomeline Low Dose",54,81,">80",3,"WHITE",1,"F","Y","Y","N","Week 8",8,"WEEK 2",4,11,"2012-09-17","Naming Objects And Fingers (Refer To 5 C","ACITM02",2,0,0,0,null,"","Y","","2-84",56,45,2,84,"DAYS",5017],["CDISCPILOT01","701","701","01-701-1111","2012-09-07","2012-09-16","Xanomeline Low Dose",54,81,">80",3,"WHITE",1,"F","Y","Y","N","Week 24",24,"RETRIEVAL",201,169,"2013-02-22","Naming Objects And Fingers (Refer To 5 C","ACITM02",2,0,0,0,null,"","Y","",">140",168,1,141,null,"DAYS",5032],["CDISCPILOT01","701","701","01-701-1111","2012-09-07","2012-09-16","Xanomeline Low Dose",54,81,">80",3,"WHITE",1,"F","Y","Y","N","Baseline",0,"BASELINE",3,1,"2012-09-07","Delayed Word Recall","ACITM03",3,6,6,null,null,"Y","Y","","<=1",1,0,null,1,"DAYS",5003],["CDISCPILOT01","701","701","01-701-1111","2012-09-07","2012-09-16","Xanomeline Low Dose",54,81,">80",3,"WHITE",1,"F","Y","Y","N","Week 8",8,"WEEK 2",4,11,"2012-09-17","Delayed Word Recall","ACITM03",3,4,6,-2,-33.3333333333,"","Y","","2-84",56,45,2,84,"DAYS",5018],["CDISCPILOT01","701","701","01-701-1111","2012-09-07","2012-09-16","Xanomeline Low Dose",54,81,">80",3,"WHITE",1,"F","Y","Y","N","Week 24",24,"RETRIEVAL",201,169,"2013-02-22","Delayed Word Recall","ACITM03",3,5,6,-1,-16.6666666667,"","Y","",">140",168,1,141,null,"DAYS",5033],["CDISCPILOT01","701","701","01-701-1111","2012-09-07","2012-09-16","Xanomeline Low Dose",54,81,">80",3,"WHITE",1,"F","Y","Y","N","Baseline",0,"BASELINE",3,1,"2012-09-07","Commands","ACITM04",4,0,0,null,null,"Y","Y","","<=1",1,0,null,1,"DAYS",5004],["CDISCPILOT01","701","701","01-701-1111","2012-09-07","2012-09-16","Xanomeline Low Dose",54,81,">80",3,"WHITE",1,"F","Y","Y","N","Week 8",8,"WEEK 2",4,11,"2012-09-17","Commands","ACITM04",4,0,0,0,null,"","Y","","2-84",56,45,2,84,"DAYS",5019],["CDISCPILOT01","701","701","01-701-1111","2012-09-07","2012-09-16","Xanomeline Low Dose",54,81,">80",3,"WHITE",1,"F","Y","Y","N","Week 24",24,"RETRIEVAL",201,169,"2013-02-22","Commands","ACITM04",4,0,0,0,null,"","Y","",">140",168,1,141,null,"DAYS",5034],["CDISCPILOT01","701","701","01-701-1111","2012-09-07","2012-09-16","Xanomeline Low Dose",54,81,">80",3,"WHITE",1,"F","Y","Y","N","Baseline",0,"BASELINE",3,1,"2012-09-07","Constructional Praxis","ACITM05",5,0,0,null,null,"Y","Y","","<=1",1,0,null,1,"DAYS",5005],["CDISCPILOT01","701","701","01-701-1111","2012-09-07","2012-09-16","Xanomeline Low Dose",54,81,">80",3,"WHITE",1,"F","Y","Y","N","Week 8",8,"WEEK 2",4,11,"2012-09-17","Constructional Praxis","ACITM05",5,0,0,0,null,"","Y","","2-84",56,45,2,84,"DAYS",5020],["CDISCPILOT01","701","701","01-701-1111","2012-09-07","2012-09-16","Xanomeline Low Dose",54,81,">80",3,"WHITE",1,"F","Y","Y","N","Week 24",24,"RETRIEVAL",201,169,"2013-02-22","Constructional Praxis","ACITM05",5,0,0,0,null,"","Y","",">140",168,1,141,null,"DAYS",5035],["CDISCPILOT01","701","701","01-701-1111","2012-09-07","2012-09-16","Xanomeline Low Dose",54,81,">80",3,"WHITE",1,"F","Y","Y","N","Baseline",0,"BASELINE",3,1,"2012-09-07","Ideational Praxis","ACITM06",6,1,1,null,null,"Y","Y","","<=1",1,0,null,1,"DAYS",5006],["CDISCPILOT01","701","701","01-701-1111","2012-09-07","2012-09-16","Xanomeline Low Dose",54,81,">80",3,"WHITE",1,"F","Y","Y","N","Week 8",8,"WEEK 2",4,11,"2012-09-17","Ideational Praxis","ACITM06",6,0,1,-1,-100,"","Y","","2-84",56,45,2,84,"DAYS",5021],["CDISCPILOT01","701","701","01-701-1111","2012-09-07","2012-09-16","Xanomeline Low Dose",54,81,">80",3,"WHITE",1,"F","Y","Y","N","Week 24",24,"RETRIEVAL",201,169,"2013-02-22","Ideational Praxis","ACITM06",6,0,1,-1,-100,"","Y","",">140",168,1,141,null,"DAYS",5036],["CDISCPILOT01","701","701","01-701-1111","2012-09-07","2012-09-16","Xanomeline Low Dose",54,81,">80",3,"WHITE",1,"F","Y","Y","N","Baseline",0,"BASELINE",3,1,"2012-09-07","Orientation","ACITM07",7,0,0,null,null,"Y","Y","","<=1",1,0,null,1,"DAYS",5007],["CDISCPILOT01","701","701","01-701-1111","2012-09-07","2012-09-16","Xanomeline Low Dose",54,81,">80",3,"WHITE",1,"F","Y","Y","N","Week 8",8,"WEEK 2",4,11,"2012-09-17","Orientation","ACITM07",7,0,0,0,null,"","Y","","2-84",56,45,2,84,"DAYS",5022],["CDISCPILOT01","701","701","01-701-1111","2012-09-07","2012-09-16","Xanomeline Low Dose",54,81,">80",3,"WHITE",1,"F","Y","Y","N","Week 24",24,"RETRIEVAL",201,169,"2013-02-22","Orientation","ACITM07",7,1,0,1,null,"","Y","",">140",168,1,141,null,"DAYS",5037],["CDISCPILOT01","701","701","01-701-1111","2012-09-07","2012-09-16","Xanomeline Low Dose",54,81,">80",3,"WHITE",1,"F","Y","Y","N","Baseline",0,"BASELINE",3,1,"2012-09-07","Word Recognition","ACITM08",8,1,1,null,null,"Y","Y","","<=1",1,0,null,1,"DAYS",5008],["CDISCPILOT01","701","701","01-701-1111","2012-09-07","2012-09-16","Xanomeline Low Dose",54,81,">80",3,"WHITE",1,"F","Y","Y","N","Week 8",8,"WEEK 2",4,11,"2012-09-17","Word Recognition","ACITM08",8,1,1,0,0,"","Y","","2-84",56,45,2,84,"DAYS",5023],["CDISCPILOT01","701","701","01-701-1111","2012-09-07","2012-09-16","Xanomeline Low Dose",54,81,">80",3,"WHITE",1,"F","Y","Y","N","Week 24",24,"RETRIEVAL",201,169,"2013-02-22","Word Recognition","ACITM08",8,3,1,2,200,"","Y","",">140",168,1,141,null,"DAYS",5038],["CDISCPILOT01","701","701","01-701-1111","2012-09-07","2012-09-16","Xanomeline Low Dose",54,81,">80",3,"WHITE",1,"F","Y","Y","N","Baseline",0,"BASELINE",3,1,"2012-09-07","Attention/Visual Search Task","ACITM09",9,31,31,null,null,"Y","Y","","<=1",1,0,null,1,"DAYS",5009],["CDISCPILOT01","701","701","01-701-1111","2012-09-07","2012-09-16","Xanomeline Low Dose",54,81,">80",3,"WHITE",1,"F","Y","Y","N","Week 8",8,"WEEK 2",4,11,"2012-09-17","Attention/Visual Search Task","ACITM09",9,24,31,-7,-22.5806451613,"","Y","","2-84",56,45,2,84,"DAYS",5024],["CDISCPILOT01","701","701","01-701-1111","2012-09-07","2012-09-16","Xanomeline Low Dose",54,81,">80",3,"WHITE",1,"F","Y","Y","N","Week 24",24,"RETRIEVAL",201,169,"2013-02-22","Attention/Visual Search Task","ACITM09",9,31,31,0,0,"","Y","",">140",168,1,141,null,"DAYS",5039],["CDISCPILOT01","701","701","01-701-1111","2012-09-07","2012-09-16","Xanomeline Low Dose",54,81,">80",3,"WHITE",1,"F","Y","Y","N","Baseline",0,"BASELINE",3,1,"2012-09-07","Maze Solution","ACITM10",10,3,3,null,null,"Y","Y","","<=1",1,0,null,1,"DAYS",5010],["CDISCPILOT01","701","701","01-701-1111","2012-09-07","2012-09-16","Xanomeline Low Dose",54,81,">80",3,"WHITE",1,"F","Y","Y","N","Week 8",8,"WEEK 2",4,11,"2012-09-17","Maze Solution","ACITM10",10,7,3,4,133.333333333,"","Y","","2-84",56,45,2,84,"DAYS",5025],["CDISCPILOT01","701","701","01-701-1111","2012-09-07","2012-09-16","Xanomeline Low Dose",54,81,">80",3,"WHITE",1,"F","Y","Y","N","Week 24",24,"RETRIEVAL",201,169,"2013-02-22","Maze Solution","ACITM10",10,7,3,4,133.333333333,"","Y","",">140",168,1,141,null,"DAYS",5040],["CDISCPILOT01","701","701","01-701-1111","2012-09-07","2012-09-16","Xanomeline Low Dose",54,81,">80",3,"WHITE",1,"F","Y","Y","N","Baseline",0,"BASELINE",3,1,"2012-09-07","Spoken Language Ability","ACITM11",11,0,0,null,null,"Y","Y","","<=1",1,0,null,1,"DAYS",5011],["CDISCPILOT01","701","701","01-701-1111","2012-09-07","2012-09-16","Xanomeline Low Dose",54,81,">80",3,"WHITE",1,"F","Y","Y","N","Week 8",8,"WEEK 2",4,11,"2012-09-17","Spoken Language Ability","ACITM11",11,0,0,0,null,"","Y","","2-84",56,45,2,84,"DAYS",5026],["CDISCPILOT01","701","701","01-701-1111","2012-09-07","2012-09-16","Xanomeline Low Dose",54,81,">80",3,"WHITE",1,"F","Y","Y","N","Week 24",24,"RETRIEVAL",201,169,"2013-02-22","Spoken Language Ability","ACITM11",11,0,0,0,null,"","Y","",">140",168,1,141,null,"DAYS",5041],["CDISCPILOT01","701","701","01-701-1111","2012-09-07","2012-09-16","Xanomeline Low Dose",54,81,">80",3,"WHITE",1,"F","Y","Y","N","Baseline",0,"BASELINE",3,1,"2012-09-07","Comprehension Of Spoken Language","ACITM12",12,0,0,null,null,"Y","Y","","<=1",1,0,null,1,"DAYS",5012],["CDISCPILOT01","701","701","01-701-1111","2012-09-07","2012-09-16","Xanomeline Low Dose",54,81,">80",3,"WHITE",1,"F","Y","Y","N","Week 8",8,"WEEK 2",4,11,"2012-09-17","Comprehension Of Spoken Language","ACITM12",12,0,0,0,null,"","Y","","2-84",56,45,2,84,"DAYS",5027],["CDISCPILOT01","701","701","01-701-1111","2012-09-07","2012-09-16","Xanomeline Low Dose",54,81,">80",3,"WHITE",1,"F","Y","Y","N","Week 24",24,"RETRIEVAL",201,169,"2013-02-22","Comprehension Of Spoken Language","ACITM12",12,0,0,0,null,"","Y","",">140",168,1,141,null,"DAYS",5042],["CDISCPILOT01","701","701","01-701-1111","2012-09-07","2012-09-16","Xanomeline Low Dose",54,81,">80",3,"WHITE",1,"F","Y","Y","N","Baseline",0,"BASELINE",3,1,"2012-09-07","Word Finding Difficulty In Spontaneous S","ACITM13",13,0,0,null,null,"Y","Y","","<=1",1,0,null,1,"DAYS",5013],["CDISCPILOT01","701","701","01-701-1111","2012-09-07","2012-09-16","Xanomeline Low Dose",54,81,">80",3,"WHITE",1,"F","Y","Y","N","Week 8",8,"WEEK 2",4,11,"2012-09-17","Word Finding Difficulty In Spontaneous S","ACITM13",13,0,0,0,null,"","Y","","2-84",56,45,2,84,"DAYS",5028],["CDISCPILOT01","701","701","01-701-1111","2012-09-07","2012-09-16","Xanomeline Low Dose",54,81,">80",3,"WHITE",1,"F","Y","Y","N","Week 24",24,"RETRIEVAL",201,169,"2013-02-22","Word Finding Difficulty In Spontaneous S","ACITM13",13,0,0,0,null,"","Y","",">140",168,1,141,null,"DAYS",5043],["CDISCPILOT01","701","701","01-701-1111","2012-09-07","2012-09-16","Xanomeline Low Dose",54,81,">80",3,"WHITE",1,"F","Y","Y","N","Baseline",0,"BASELINE",3,1,"2012-09-07","Recall Of Test Instructions","ACITM14",14,0,0,null,null,"Y","Y","","<=1",1,0,null,1,"DAYS",5014],["CDISCPILOT01","701","701","01-701-1111","2012-09-07","2012-09-16","Xanomeline Low Dose",54,81,">80",3,"WHITE",1,"F","Y","Y","N","Week 8",8,"WEEK 2",4,11,"2012-09-17","Recall Of Test Instructions","ACITM14",14,0,0,0,null,"","Y","","2-84",56,45,2,84,"DAYS",5029],["CDISCPILOT01","701","701","01-701-1111","2012-09-07","2012-09-16","Xanomeline Low Dose",54,81,">80",3,"WHITE",1,"F","Y","Y","N","Week 24",24,"RETRIEVAL",201,169,"2013-02-22","Recall Of Test Instructions","ACITM14",14,0,0,0,null,"","Y","",">140",168,1,141,null,"DAYS",5044],["CDISCPILOT01","701","701","01-701-1111","2012-09-07","2012-09-16","Xanomeline Low Dose",54,81,">80",3,"WHITE",1,"F","Y","Y","N","Baseline",0,"BASELINE",3,1,"2012-09-07","Adas-Cog(11) Subscore","ACTOT",15,7,7,null,null,"Y","Y","","<=1",1,0,null,1,"DAYS",5015],["CDISCPILOT01","701","701","01-701-1111","2012-09-07","2012-09-16","Xanomeline Low Dose",54,81,">80",3,"WHITE",1,"F","Y","Y","N","Week 8",8,"WEEK 2",4,11,"2012-09-17","Adas-Cog(11) Subscore","ACTOT",15,5,7,-2,-28.5714285714,"","Y","","2-84",56,45,2,84,"DAYS",5030],["CDISCPILOT01","701","701","01-701-1111","2012-09-07","2012-09-16","Xanomeline Low Dose",54,81,">80",3,"WHITE",1,"F","Y","Y","N","Week 16",16,"WEEK 2",4,11,"2012-09-17","Adas-Cog(11) Subscore","ACTOT",15,5,7,-2,-28.5714285714,"","Y","LOCF","85-140",112,101,85,140,"DAYS",5030],["CDISCPILOT01","701","701","01-701-1111","2012-09-07","2012-09-16","Xanomeline Low Dose",54,81,">80",3,"WHITE",1,"F","Y","Y","N","Week 24",24,"RETRIEVAL",201,169,"2013-02-22","Adas-Cog(11) Subscore","ACTOT",15,9,7,2,28.5714285714,"","Y","",">140",168,1,141,null,"DAYS",5045],["CDISCPILOT01","701","701","01-701-1115","2012-11-30","2013-01-23","Xanomeline Low Dose",54,84,">80",3,"WHITE",1,"M","Y","Y","N","Baseline",0,"BASELINE",3,1,"2012-11-30","Word Recall Task","ACITM01",1,6,6,null,null,"Y","Y","","<=1",1,0,null,1,"DAYS",5001],["CDISCPILOT01","701","701","01-701-1115","2012-11-30","2013-01-23","Xanomeline Low Dose",54,84,">80",3,"WHITE",1,"M","Y","Y","N","Week 8",8,"WEEK 8",8,55,"2013-01-23","Word Recall Task","ACITM01",1,6,6,0,0,"","Y","","2-84",56,1,2,84,"DAYS",5016],["CDISCPILOT01","701","701","01-701-1115","2012-11-30","2013-01-23","Xanomeline Low Dose",54,84,">80",3,"WHITE",1,"M","Y","Y","N","Week 24",24,"RETRIEVAL",201,172,"2013-05-20","Word Recall Task","ACITM01",1,6,6,0,0,"","Y","",">140",168,4,141,null,"DAYS",5031],["CDISCPILOT01","701","701","01-701-1115","2012-11-30","2013-01-23","Xanomeline Low Dose",54,84,">80",3,"WHITE",1,"M","Y","Y","N","Baseline",0,"BASELINE",3,1,"2012-11-30","Naming Objects And Fingers (Refer To 5 C","ACITM02",2,0,0,null,null,"Y","Y","","<=1",1,0,null,1,"DAYS",5002],["CDISCPILOT01","701","701","01-701-1115","2012-11-30","2013-01-23","Xanomeline Low Dose",54,84,">80",3,"WHITE",1,"M","Y","Y","N","Week 8",8,"WEEK 8",8,55,"2013-01-23","Naming Objects And Fingers (Refer To 5 C","ACITM02",2,1,0,1,null,"","Y","","2-84",56,1,2,84,"DAYS",5017],["CDISCPILOT01","701","701","01-701-1115","2012-11-30","2013-01-23","Xanomeline Low Dose",54,84,">80",3,"WHITE",1,"M","Y","Y","N","Week 24",24,"RETRIEVAL",201,172,"2013-05-20","Naming Objects And Fingers (Refer To 5 C","ACITM02",2,0,0,0,null,"","Y","",">140",168,4,141,null,"DAYS",5032],["CDISCPILOT01","701","701","01-701-1115","2012-11-30","2013-01-23","Xanomeline Low Dose",54,84,">80",3,"WHITE",1,"M","Y","Y","N","Baseline",0,"BASELINE",3,1,"2012-11-30","Delayed Word Recall","ACITM03",3,6,6,null,null,"Y","Y","","<=1",1,0,null,1,"DAYS",5003],["CDISCPILOT01","701","701","01-701-1115","2012-11-30","2013-01-23","Xanomeline Low Dose",54,84,">80",3,"WHITE",1,"M","Y","Y","N","Week 8",8,"WEEK 8",8,55,"2013-01-23","Delayed Word Recall","ACITM03",3,6,6,0,0,"","Y","","2-84",56,1,2,84,"DAYS",5018],["CDISCPILOT01","701","701","01-701-1115","2012-11-30","2013-01-23","Xanomeline Low Dose",54,84,">80",3,"WHITE",1,"M","Y","Y","N","Week 24",24,"RETRIEVAL",201,172,"2013-05-20","Delayed Word Recall","ACITM03",3,7,6,1,16.6666666667,"","Y","",">140",168,4,141,null,"DAYS",5033],["CDISCPILOT01","701","701","01-701-1115","2012-11-30","2013-01-23","Xanomeline Low Dose",54,84,">80",3,"WHITE",1,"M","Y","Y","N","Baseline",0,"BASELINE",3,1,"2012-11-30","Commands","ACITM04",4,0,0,null,null,"Y","Y","","<=1",1,0,null,1,"DAYS",5004],["CDISCPILOT01","701","701","01-701-1115","2012-11-30","2013-01-23","Xanomeline Low Dose",54,84,">80",3,"WHITE",1,"M","Y","Y","N","Week 8",8,"WEEK 8",8,55,"2013-01-23","Commands","ACITM04",4,0,0,0,null,"","Y","","2-84",56,1,2,84,"DAYS",5019],["CDISCPILOT01","701","701","01-701-1115","2012-11-30","2013-01-23","Xanomeline Low Dose",54,84,">80",3,"WHITE",1,"M","Y","Y","N","Week 24",24,"RETRIEVAL",201,172,"2013-05-20","Commands","ACITM04",4,0,0,0,null,"","Y","",">140",168,4,141,null,"DAYS",5034],["CDISCPILOT01","701","701","01-701-1115","2012-11-30","2013-01-23","Xanomeline Low Dose",54,84,">80",3,"WHITE",1,"M","Y","Y","N","Baseline",0,"BASELINE",3,1,"2012-11-30","Constructional Praxis","ACITM05",5,1,1,null,null,"Y","Y","","<=1",1,0,null,1,"DAYS",5005],["CDISCPILOT01","701","701","01-701-1115","2012-11-30","2013-01-23","Xanomeline Low Dose",54,84,">80",3,"WHITE",1,"M","Y","Y","N","Week 8",8,"WEEK 8",8,55,"2013-01-23","Constructional Praxis","ACITM05",5,1,1,0,0,"","Y","","2-84",56,1,2,84,"DAYS",5020],["CDISCPILOT01","701","701","01-701-1115","2012-11-30","2013-01-23","Xanomeline Low Dose",54,84,">80",3,"WHITE",1,"M","Y","Y","N","Week 24",24,"RETRIEVAL",201,172,"2013-05-20","Constructional Praxis","ACITM05",5,1,1,0,0,"","Y","",">140",168,4,141,null,"DAYS",5035],["CDISCPILOT01","701","701","01-701-1115","2012-11-30","2013-01-23","Xanomeline Low Dose",54,84,">80",3,"WHITE",1,"M","Y","Y","N","Baseline",0,"BASELINE",3,1,"2012-11-30","Ideational Praxis","ACITM06",6,1,1,null,null,"Y","Y","","<=1",1,0,null,1,"DAYS",5006],["CDISCPILOT01","701","701","01-701-1115","2012-11-30","2013-01-23","Xanomeline Low Dose",54,84,">80",3,"WHITE",1,"M","Y","Y","N","Week 8",8,"WEEK 8",8,55,"2013-01-23","Ideational Praxis","ACITM06",6,0,1,-1,-100,"","Y","","2-84",56,1,2,84,"DAYS",5021],["CDISCPILOT01","701","701","01-701-1115","2012-11-30","2013-01-23","Xanomeline Low Dose",54,84,">80",3,"WHITE",1,"M","Y","Y","N","Week 24",24,"RETRIEVAL",201,172,"2013-05-20","Ideational Praxis","ACITM06",6,0,1,-1,-100,"","Y","",">140",168,4,141,null,"DAYS",5036],["CDISCPILOT01","701","701","01-701-1115","2012-11-30","2013-01-23","Xanomeline Low Dose",54,84,">80",3,"WHITE",1,"M","Y","Y","N","Baseline",0,"BASELINE",3,1,"2012-11-30","Orientation","ACITM07",7,1,1,null,null,"Y","Y","","<=1",1,0,null,1,"DAYS",5007],["CDISCPILOT01","701","701","01-701-1115","2012-11-30","2013-01-23","Xanomeline Low Dose",54,84,">80",3,"WHITE",1,"M","Y","Y","N","Week 8",8,"WEEK 8",8,55,"2013-01-23","Orientation","ACITM07",7,1,1,0,0,"","Y","","2-84",56,1,2,84,"DAYS",5022],["CDISCPILOT01","701","701","01-701-1115","2012-11-30","2013-01-23","Xanomeline Low Dose",54,84,">80",3,"WHITE",1,"M","Y","Y","N","Week 24",24,"RETRIEVAL",201,172,"2013-05-20","Orientation","ACITM07",7,2,1,1,100,"","Y","",">140",168,4,141,null,"DAYS",5037],["CDISCPILOT01","701","701","01-701-1115","2012-11-30","2013-01-23","Xanomeline Low Dose",54,84,">80",3,"WHITE",1,"M","Y","Y","N","Baseline",0,"BASELINE",3,1,"2012-11-30","Word Recognition","ACITM08",8,1,1,null,null,"Y","Y","","<=1",1,0,null,1,"DAYS",5008],["CDISCPILOT01","701","701","01-701-1115","2012-11-30","2013-01-23","Xanomeline Low Dose",54,84,">80",3,"WHITE",1,"M","Y","Y","N","Week 8",8,"WEEK 8",8,55,"2013-01-23","Word Recognition","ACITM08",8,5,1,4,400,"","Y","","2-84",56,1,2,84,"DAYS",5023],["CDISCPILOT01","701","701","01-701-1115","2012-11-30","2013-01-23","Xanomeline Low Dose",54,84,">80",3,"WHITE",1,"M","Y","Y","N","Week 24",24,"RETRIEVAL",201,172,"2013-05-20","Word Recognition","ACITM08",8,1,1,0,0,"","Y","",">140",168,4,141,null,"DAYS",5038],["CDISCPILOT01","701","701","01-701-1115","2012-11-30","2013-01-23","Xanomeline Low Dose",54,84,">80",3,"WHITE",1,"M","Y","Y","N","Baseline",0,"BASELINE",3,1,"2012-11-30","Attention/Visual Search Task","ACITM09",9,26,26,null,null,"Y","Y","","<=1",1,0,null,1,"DAYS",5009],["CDISCPILOT01","701","701","01-701-1115","2012-11-30","2013-01-23","Xanomeline Low Dose",54,84,">80",3,"WHITE",1,"M","Y","Y","N","Week 8",8,"WEEK 8",8,55,"2013-01-23","Attention/Visual Search Task","ACITM09",9,23,26,-3,-11.5384615385,"","Y","","2-84",56,1,2,84,"DAYS",5024],["CDISCPILOT01","701","701","01-701-1115","2012-11-30","2013-01-23","Xanomeline Low Dose",54,84,">80",3,"WHITE",1,"M","Y","Y","N","Week 24",24,"RETRIEVAL",201,172,"2013-05-20","Attention/Visual Search Task","ACITM09",9,24,26,-2,-7.69230769231,"","Y","",">140",168,4,141,null,"DAYS",5039],["CDISCPILOT01","701","701","01-701-1115","2012-11-30","2013-01-23","Xanomeline Low Dose",54,84,">80",3,"WHITE",1,"M","Y","Y","N","Baseline",0,"BASELINE",3,1,"2012-11-30","Maze Solution","ACITM10",10,3,3,null,null,"Y","Y","","<=1",1,0,null,1,"DAYS",5010],["CDISCPILOT01","701","701","01-701-1115","2012-11-30","2013-01-23","Xanomeline Low Dose",54,84,">80",3,"WHITE",1,"M","Y","Y","N","Week 8",8,"WEEK 8",8,55,"2013-01-23","Maze Solution","ACITM10",10,6,3,3,100,"","Y","","2-84",56,1,2,84,"DAYS",5025],["CDISCPILOT01","701","701","01-701-1115","2012-11-30","2013-01-23","Xanomeline Low Dose",54,84,">80",3,"WHITE",1,"M","Y","Y","N","Week 24",24,"RETRIEVAL",201,172,"2013-05-20","Maze Solution","ACITM10",10,7,3,4,133.333333333,"","Y","",">140",168,4,141,null,"DAYS",5040],["CDISCPILOT01","701","701","01-701-1115","2012-11-30","2013-01-23","Xanomeline Low Dose",54,84,">80",3,"WHITE",1,"M","Y","Y","N","Baseline",0,"BASELINE",3,1,"2012-11-30","Spoken Language Ability","ACITM11",11,0,0,null,null,"Y","Y","","<=1",1,0,null,1,"DAYS",5011],["CDISCPILOT01","701","701","01-701-1115","2012-11-30","2013-01-23","Xanomeline Low Dose",54,84,">80",3,"WHITE",1,"M","Y","Y","N","Week 8",8,"WEEK 8",8,55,"2013-01-23","Spoken Language Ability","ACITM11",11,0,0,0,null,"","Y","","2-84",56,1,2,84,"DAYS",5026],["CDISCPILOT01","701","701","01-701-1115","2012-11-30","2013-01-23","Xanomeline Low Dose",54,84,">80",3,"WHITE",1,"M","Y","Y","N","Week 24",24,"RETRIEVAL",201,172,"2013-05-20","Spoken Language Ability","ACITM11",11,0,0,0,null,"","Y","",">140",168,4,141,null,"DAYS",5041],["CDISCPILOT01","701","701","01-701-1115","2012-11-30","2013-01-23","Xanomeline Low Dose",54,84,">80",3,"WHITE",1,"M","Y","Y","N","Baseline",0,"BASELINE",3,1,"2012-11-30","Comprehension Of Spoken Language","ACITM12",12,0,0,null,null,"Y","Y","","<=1",1,0,null,1,"DAYS",5012],["CDISCPILOT01","701","701","01-701-1115","2012-11-30","2013-01-23","Xanomeline Low Dose",54,84,">80",3,"WHITE",1,"M","Y","Y","N","Week 8",8,"WEEK 8",8,55,"2013-01-23","Comprehension Of Spoken Language","ACITM12",12,0,0,0,null,"","Y","","2-84",56,1,2,84,"DAYS",5027],["CDISCPILOT01","701","701","01-701-1115","2012-11-30","2013-01-23","Xanomeline Low Dose",54,84,">80",3,"WHITE",1,"M","Y","Y","N","Week 24",24,"RETRIEVAL",201,172,"2013-05-20","Comprehension Of Spoken Language","ACITM12",12,0,0,0,null,"","Y","",">140",168,4,141,null,"DAYS",5042],["CDISCPILOT01","701","701","01-701-1115","2012-11-30","2013-01-23","Xanomeline Low Dose",54,84,">80",3,"WHITE",1,"M","Y","Y","N","Baseline",0,"BASELINE",3,1,"2012-11-30","Word Finding Difficulty In Spontaneous S","ACITM13",13,0,0,null,null,"Y","Y","","<=1",1,0,null,1,"DAYS",5013],["CDISCPILOT01","701","701","01-701-1115","2012-11-30","2013-01-23","Xanomeline Low Dose",54,84,">80",3,"WHITE",1,"M","Y","Y","N","Week 8",8,"WEEK 8",8,55,"2013-01-23","Word Finding Difficulty In Spontaneous S","ACITM13",13,0,0,0,null,"","Y","","2-84",56,1,2,84,"DAYS",5028],["CDISCPILOT01","701","701","01-701-1115","2012-11-30","2013-01-23","Xanomeline Low Dose",54,84,">80",3,"WHITE",1,"M","Y","Y","N","Week 24",24,"RETRIEVAL",201,172,"2013-05-20","Word Finding Difficulty In Spontaneous S","ACITM13",13,0,0,0,null,"","Y","",">140",168,4,141,null,"DAYS",5043],["CDISCPILOT01","701","701","01-701-1115","2012-11-30","2013-01-23","Xanomeline Low Dose",54,84,">80",3,"WHITE",1,"M","Y","Y","N","Baseline",0,"BASELINE",3,1,"2012-11-30","Recall Of Test Instructions","ACITM14",14,0,0,null,null,"Y","Y","","<=1",1,0,null,1,"DAYS",5014],["CDISCPILOT01","701","701","01-701-1115","2012-11-30","2013-01-23","Xanomeline Low Dose",54,84,">80",3,"WHITE",1,"M","Y","Y","N","Week 8",8,"WEEK 8",8,55,"2013-01-23","Recall Of Test Instructions","ACITM14",14,0,0,0,null,"","Y","","2-84",56,1,2,84,"DAYS",5029],["CDISCPILOT01","701","701","01-701-1115","2012-11-30","2013-01-23","Xanomeline Low Dose",54,84,">80",3,"WHITE",1,"M","Y","Y","N","Week 24",24,"RETRIEVAL",201,172,"2013-05-20","Recall Of Test Instructions","ACITM14",14,0,0,0,null,"","Y","",">140",168,4,141,null,"DAYS",5044],["CDISCPILOT01","701","701","01-701-1115","2012-11-30","2013-01-23","Xanomeline Low Dose",54,84,">80",3,"WHITE",1,"M","Y","Y","N","Baseline",0,"BASELINE",3,1,"2012-11-30","Adas-Cog(11) Subscore","ACTOT",15,10,10,null,null,"Y","Y","","<=1",1,0,null,1,"DAYS",5015],["CDISCPILOT01","701","701","01-701-1115","2012-11-30","2013-01-23","Xanomeline Low Dose",54,84,">80",3,"WHITE",1,"M","Y","Y","N","Week 8",8,"WEEK 8",8,55,"2013-01-23","Adas-Cog(11) Subscore","ACTOT",15,14,10,4,40,"","Y","","2-84",56,1,2,84,"DAYS",5030],["CDISCPILOT01","701","701","01-701-1115","2012-11-30","2013-01-23","Xanomeline Low Dose",54,84,">80",3,"WHITE",1,"M","Y","Y","N","Week 16",16,"WEEK 8",8,55,"2013-01-23","Adas-Cog(11) Subscore","ACTOT",15,14,10,4,40,"","Y","LOCF","85-140",112,57,85,140,"DAYS",5030],["CDISCPILOT01","701","701","01-701-1115","2012-11-30","2013-01-23","Xanomeline Low Dose",54,84,">80",3,"WHITE",1,"M","Y","Y","N","Week 24",24,"RETRIEVAL",201,172,"2013-05-20","Adas-Cog(11) Subscore","ACTOT",15,10,10,0,0,"","Y","",">140",168,4,141,null,"DAYS",5045],["CDISCPILOT01","701","701","01-701-1118","2014-03-12","2014-09-09","Placebo",0,52,"<65",1,"WHITE",1,"M","Y","Y","Y","Baseline",0,"BASELINE",3,1,"2014-03-12","Word Recall Task","ACITM01",1,5,5,null,null,"Y","Y","","<=1",1,0,null,1,"DAYS",5001],["CDISCPILOT01","701","701","01-701-1118","2014-03-12","2014-09-09","Placebo",0,52,"<65",1,"WHITE",1,"M","Y","Y","Y","Week 8",8,"WEEK 8",8,58,"2014-05-08","Word Recall Task","ACITM01",1,5,5,0,0,"","Y","","2-84",56,2,2,84,"DAYS",5016],["CDISCPILOT01","701","701","01-701-1118","2014-03-12","2014-09-09","Placebo",0,52,"<65",1,"WHITE",1,"M","Y","Y","Y","Week 16",16,"WEEK 16",10,113,"2014-07-02","Word Recall Task","ACITM01",1,4,5,-1,-20,"","Y","","85-140",112,1,85,140,"DAYS",5031],["CDISCPILOT01","701","701","01-701-1118","2014-03-12","2014-09-09","Placebo",0,52,"<65",1,"WHITE",1,"M","Y","Y","Y","Week 24",24,"WEEK 24",12,169,"2014-08-27","Word Recall Task","ACITM01",1,5,5,0,0,"","Y","",">140",168,1,141,null,"DAYS",5046],["CDISCPILOT01","701","701","01-701-1118","2014-03-12","2014-09-09","Placebo",0,52,"<65",1,"WHITE",1,"M","Y","Y","Y","Baseline",0,"BASELINE",3,1,"2014-03-12","Naming Objects And Fingers (Refer To 5 C","ACITM02",2,1,1,null,null,"Y","Y","","<=1",1,0,null,1,"DAYS",5002],["CDISCPILOT01","701","701","01-701-1118","2014-03-12","2014-09-09","Placebo",0,52,"<65",1,"WHITE",1,"M","Y","Y","Y","Week 8",8,"WEEK 8",8,58,"2014-05-08","Naming Objects And Fingers (Refer To 5 C","ACITM02",2,0,1,-1,-100,"","Y","","2-84",56,2,2,84,"DAYS",5017],["CDISCPILOT01","701","701","01-701-1118","2014-03-12","2014-09-09","Placebo",0,52,"<65",1,"WHITE",1,"M","Y","Y","Y","Week 16",16,"WEEK 16",10,113,"2014-07-02","Naming Objects And Fingers (Refer To 5 C","ACITM02",2,0,1,-1,-100,"","Y","","85-140",112,1,85,140,"DAYS",5032],["CDISCPILOT01","701","701","01-701-1118","2014-03-12","2014-09-09","Placebo",0,52,"<65",1,"WHITE",1,"M","Y","Y","Y","Week 24",24,"WEEK 24",12,169,"2014-08-27","Naming Objects And Fingers (Refer To 5 C","ACITM02",2,0,1,-1,-100,"","Y","",">140",168,1,141,null,"DAYS",5047],["CDISCPILOT01","701","701","01-701-1118","2014-03-12","2014-09-09","Placebo",0,52,"<65",1,"WHITE",1,"M","Y","Y","Y","Baseline",0,"BASELINE",3,1,"2014-03-12","Delayed Word Recall","ACITM03",3,10,10,null,null,"Y","Y","","<=1",1,0,null,1,"DAYS",5003],["CDISCPILOT01","701","701","01-701-1118","2014-03-12","2014-09-09","Placebo",0,52,"<65",1,"WHITE",1,"M","Y","Y","Y","Week 8",8,"WEEK 8",8,58,"2014-05-08","Delayed Word Recall","ACITM03",3,7,10,-3,-30,"","Y","","2-84",56,2,2,84,"DAYS",5018],["CDISCPILOT01","701","701","01-701-1118","2014-03-12","2014-09-09","Placebo",0,52,"<65",1,"WHITE",1,"M","Y","Y","Y","Week 16",16,"WEEK 16",10,113,"2014-07-02","Delayed Word Recall","ACITM03",3,6,10,-4,-40,"","Y","","85-140",112,1,85,140,"DAYS",5033],["CDISCPILOT01","701","701","01-701-1118","2014-03-12","2014-09-09","Placebo",0,52,"<65",1,"WHITE",1,"M","Y","Y","Y","Week 24",24,"WEEK 24",12,169,"2014-08-27","Delayed Word Recall","ACITM03",3,8,10,-2,-20,"","Y","",">140",168,1,141,null,"DAYS",5048],["CDISCPILOT01","701","701","01-701-1118","2014-03-12","2014-09-09","Placebo",0,52,"<65",1,"WHITE",1,"M","Y","Y","Y","Baseline",0,"BASELINE",3,1,"2014-03-12","Commands","ACITM04",4,0,0,null,null,"Y","Y","","<=1",1,0,null,1,"DAYS",5004],["CDISCPILOT01","701","701","01-701-1118","2014-03-12","2014-09-09","Placebo",0,52,"<65",1,"WHITE",1,"M","Y","Y","Y","Week 8",8,"WEEK 8",8,58,"2014-05-08","Commands","ACITM04",4,0,0,0,null,"","Y","","2-84",56,2,2,84,"DAYS",5019],["CDISCPILOT01","701","701","01-701-1118","2014-03-12","2014-09-09","Placebo",0,52,"<65",1,"WHITE",1,"M","Y","Y","Y","Week 16",16,"WEEK 16",10,113,"2014-07-02","Commands","ACITM04",4,0,0,0,null,"","Y","","85-140",112,1,85,140,"DAYS",5034],["CDISCPILOT01","701","701","01-701-1118","2014-03-12","2014-09-09","Placebo",0,52,"<65",1,"WHITE",1,"M","Y","Y","Y","Week 24",24,"WEEK 24",12,169,"2014-08-27","Commands","ACITM04",4,0,0,0,null,"","Y","",">140",168,1,141,null,"DAYS",5049],["CDISCPILOT01","701","701","01-701-1118","2014-03-12","2014-09-09","Placebo",0,52,"<65",1,"WHITE",1,"M","Y","Y","Y","Baseline",0,"BASELINE",3,1,"2014-03-12","Constructional Praxis","ACITM05",5,3,3,null,null,"Y","Y","","<=1",1,0,null,1,"DAYS",5005],["CDISCPILOT01","701","701","01-701-1118","2014-03-12","2014-09-09","Placebo",0,52,"<65",1,"WHITE",1,"M","Y","Y","Y","Week 8",8,"WEEK 8",8,58,"2014-05-08","Constructional Praxis","ACITM05",5,3,3,0,0,"","Y","","2-84",56,2,2,84,"DAYS",5020],["CDISCPILOT01","701","701","01-701-1118","2014-03-12","2014-09-09","Placebo",0,52,"<65",1,"WHITE",1,"M","Y","Y","Y","Week 16",16,"WEEK 16",10,113,"2014-07-02","Constructional Praxis","ACITM05",5,2,3,-1,-33.3333333333,"","Y","","85-140",112,1,85,140,"DAYS",5035],["CDISCPILOT01","701","701","01-701-1118","2014-03-12","2014-09-09","Placebo",0,52,"<65",1,"WHITE",1,"M","Y","Y","Y","Week 24",24,"WEEK 24",12,169,"2014-08-27","Constructional Praxis","ACITM05",5,2,3,-1,-33.3333333333,"","Y","",">140",168,1,141,null,"DAYS",5050],["CDISCPILOT01","701","701","01-701-1118","2014-03-12","2014-09-09","Placebo",0,52,"<65",1,"WHITE",1,"M","Y","Y","Y","Baseline",0,"BASELINE",3,1,"2014-03-12","Ideational Praxis","ACITM06",6,1,1,null,null,"Y","Y","","<=1",1,0,null,1,"DAYS",5006],["CDISCPILOT01","701","701","01-701-1118","2014-03-12","2014-09-09","Placebo",0,52,"<65",1,"WHITE",1,"M","Y","Y","Y","Week 8",8,"WEEK 8",8,58,"2014-05-08","Ideational Praxis","ACITM06",6,0,1,-1,-100,"","Y","","2-84",56,2,2,84,"DAYS",5021],["CDISCPILOT01","701","701","01-701-1118","2014-03-12","2014-09-09","Placebo",0,52,"<65",1,"WHITE",1,"M","Y","Y","Y","Week 16",16,"WEEK 16",10,113,"2014-07-02","Ideational Praxis","ACITM06",6,0,1,-1,-100,"","Y","","85-140",112,1,85,140,"DAYS",5036],["CDISCPILOT01","701","701","01-701-1118","2014-03-12","2014-09-09","Placebo",0,52,"<65",1,"WHITE",1,"M","Y","Y","Y","Week 24",24,"WEEK 24",12,169,"2014-08-27","Ideational Praxis","ACITM06",6,0,1,-1,-100,"","Y","",">140",168,1,141,null,"DAYS",5051],["CDISCPILOT01","701","701","01-701-1118","2014-03-12","2014-09-09","Placebo",0,52,"<65",1,"WHITE",1,"M","Y","Y","Y","Baseline",0,"BASELINE",3,1,"2014-03-12","Orientation","ACITM07",7,4,4,null,null,"Y","Y","","<=1",1,0,null,1,"DAYS",5007],["CDISCPILOT01","701","701","01-701-1118","2014-03-12","2014-09-09","Placebo",0,52,"<65",1,"WHITE",1,"M","Y","Y","Y","Week 8",8,"WEEK 8",8,58,"2014-05-08","Orientation","ACITM07",7,1,4,-3,-75,"","Y","","2-84",56,2,2,84,"DAYS",5022],["CDISCPILOT01","701","701","01-701-1118","2014-03-12","2014-09-09","Placebo",0,52,"<65",1,"WHITE",1,"M","Y","Y","Y","Week 16",16,"WEEK 16",10,113,"2014-07-02","Orientation","ACITM07",7,1,4,-3,-75,"","Y","","85-140",112,1,85,140,"DAYS",5037],["CDISCPILOT01","701","701","01-701-1118","2014-03-12","2014-09-09","Placebo",0,52,"<65",1,"WHITE",1,"M","Y","Y","Y","Week 24",24,"WEEK 24",12,169,"2014-08-27","Orientation","ACITM07",7,1,4,-3,-75,"","Y","",">140",168,1,141,null,"DAYS",5052],["CDISCPILOT01","701","701","01-701-1118","2014-03-12","2014-09-09","Placebo",0,52,"<65",1,"WHITE",1,"M","Y","Y","Y","Baseline",0,"BASELINE",3,1,"2014-03-12","Word Recognition","ACITM08",8,10,10,null,null,"Y","Y","","<=1",1,0,null,1,"DAYS",5008],["CDISCPILOT01","701","701","01-701-1118","2014-03-12","2014-09-09","Placebo",0,52,"<65",1,"WHITE",1,"M","Y","Y","Y","Week 8",8,"WEEK 8",8,58,"2014-05-08","Word Recognition","ACITM08",8,10,10,0,0,"","Y","","2-84",56,2,2,84,"DAYS",5023],["CDISCPILOT01","701","701","01-701-1118","2014-03-12","2014-09-09","Placebo",0,52,"<65",1,"WHITE",1,"M","Y","Y","Y","Week 16",16,"WEEK 16",10,113,"2014-07-02","Word Recognition","ACITM08",8,10,10,0,0,"","Y","","85-140",112,1,85,140,"DAYS",5038],["CDISCPILOT01","701","701","01-701-1118","2014-03-12","2014-09-09","Placebo",0,52,"<65",1,"WHITE",1,"M","Y","Y","Y","Week 24",24,"WEEK 24",12,169,"2014-08-27","Word Recognition","ACITM08",8,7,10,-3,-30,"","Y","",">140",168,1,141,null,"DAYS",5053],["CDISCPILOT01","701","701","01-701-1118","2014-03-12","2014-09-09","Placebo",0,52,"<65",1,"WHITE",1,"M","Y","Y","Y","Baseline",0,"BASELINE",3,1,"2014-03-12","Attention/Visual Search Task","ACITM09",9,12,12,null,null,"Y","Y","","<=1",1,0,null,1,"DAYS",5009],["CDISCPILOT01","701","701","01-701-1118","2014-03-12","2014-09-09","Placebo",0,52,"<65",1,"WHITE",1,"M","Y","Y","Y","Week 8",8,"WEEK 8",8,58,"2014-05-08","Attention/Visual Search Task","ACITM09",9,10,12,-2,-16.6666666667,"","Y","","2-84",56,2,2,84,"DAYS",5024],["CDISCPILOT01","701","701","01-701-1118","2014-03-12","2014-09-09","Placebo",0,52,"<65",1,"WHITE",1,"M","Y","Y","Y","Week 16",16,"WEEK 16",10,113,"2014-07-02","Attention/Visual Search Task","ACITM09",9,11,12,-1,-8.33333333333,"","Y","","85-140",112,1,85,140,"DAYS",5039],["CDISCPILOT01","701","701","01-701-1118","2014-03-12","2014-09-09","Placebo",0,52,"<65",1,"WHITE",1,"M","Y","Y","Y","Week 24",24,"WEEK 24",12,169,"2014-08-27","Attention/Visual Search Task","ACITM09",9,18,12,6,50,"","Y","",">140",168,1,141,null,"DAYS",5054],["CDISCPILOT01","701","701","01-701-1118","2014-03-12","2014-09-09","Placebo",0,52,"<65",1,"WHITE",1,"M","Y","Y","Y","Baseline",0,"BASELINE",3,1,"2014-03-12","Maze Solution","ACITM10",10,6,6,null,null,"Y","Y","","<=1",1,0,null,1,"DAYS",5010],["CDISCPILOT01","701","701","01-701-1118","2014-03-12","2014-09-09","Placebo",0,52,"<65",1,"WHITE",1,"M","Y","Y","Y","Week 8",8,"WEEK 8",8,58,"2014-05-08","Maze Solution","ACITM10",10,7,6,1,16.6666666667,"","Y","","2-84",56,2,2,84,"DAYS",5025],["CDISCPILOT01","701","701","01-701-1118","2014-03-12","2014-09-09","Placebo",0,52,"<65",1,"WHITE",1,"M","Y","Y","Y","Week 16",16,"WEEK 16",10,113,"2014-07-02","Maze Solution","ACITM10",10,9,6,3,50,"","Y","","85-140",112,1,85,140,"DAYS",5040],["CDISCPILOT01","701","701","01-701-1118","2014-03-12","2014-09-09","Placebo",0,52,"<65",1,"WHITE",1,"M","Y","Y","Y","Week 24",24,"WEEK 24",12,169,"2014-08-27","Maze Solution","ACITM10",10,7,6,1,16.6666666667,"","Y","",">140",168,1,141,null,"DAYS",5055],["CDISCPILOT01","701","701","01-701-1118","2014-03-12","2014-09-09","Placebo",0,52,"<65",1,"WHITE",1,"M","Y","Y","Y","Baseline",0,"BASELINE",3,1,"2014-03-12","Spoken Language Ability","ACITM11",11,0,0,null,null,"Y","Y","","<=1",1,0,null,1,"DAYS",5011],["CDISCPILOT01","701","701","01-701-1118","2014-03-12","2014-09-09","Placebo",0,52,"<65",1,"WHITE",1,"M","Y","Y","Y","Week 8",8,"WEEK 8",8,58,"2014-05-08","Spoken Language Ability","ACITM11",11,0,0,0,null,"","Y","","2-84",56,2,2,84,"DAYS",5026],["CDISCPILOT01","701","701","01-701-1118","2014-03-12","2014-09-09","Placebo",0,52,"<65",1,"WHITE",1,"M","Y","Y","Y","Week 16",16,"WEEK 16",10,113,"2014-07-02","Spoken Language Ability","ACITM11",11,0,0,0,null,"","Y","","85-140",112,1,85,140,"DAYS",5041],["CDISCPILOT01","701","701","01-701-1118","2014-03-12","2014-09-09","Placebo",0,52,"<65",1,"WHITE",1,"M","Y","Y","Y","Week 24",24,"WEEK 24",12,169,"2014-08-27","Spoken Language Ability","ACITM11",11,0,0,0,null,"","Y","",">140",168,1,141,null,"DAYS",5056],["CDISCPILOT01","701","701","01-701-1118","2014-03-12","2014-09-09","Placebo",0,52,"<65",1,"WHITE",1,"M","Y","Y","Y","Baseline",0,"BASELINE",3,1,"2014-03-12","Comprehension Of Spoken Language","ACITM12",12,0,0,null,null,"Y","Y","","<=1",1,0,null,1,"DAYS",5012],["CDISCPILOT01","701","701","01-701-1118","2014-03-12","2014-09-09","Placebo",0,52,"<65",1,"WHITE",1,"M","Y","Y","Y","Week 8",8,"WEEK 8",8,58,"2014-05-08","Comprehension Of Spoken Language","ACITM12",12,0,0,0,null,"","Y","","2-84",56,2,2,84,"DAYS",5027],["CDISCPILOT01","701","701","01-701-1118","2014-03-12","2014-09-09","Placebo",0,52,"<65",1,"WHITE",1,"M","Y","Y","Y","Week 16",16,"WEEK 16",10,113,"2014-07-02","Comprehension Of Spoken Language","ACITM12",12,0,0,0,null,"","Y","","85-140",112,1,85,140,"DAYS",5042],["CDISCPILOT01","701","701","01-701-1118","2014-03-12","2014-09-09","Placebo",0,52,"<65",1,"WHITE",1,"M","Y","Y","Y","Week 24",24,"WEEK 24",12,169,"2014-08-27","Comprehension Of Spoken Language","ACITM12",12,0,0,0,null,"","Y","",">140",168,1,141,null,"DAYS",5057],["CDISCPILOT01","701","701","01-701-1118","2014-03-12","2014-09-09","Placebo",0,52,"<65",1,"WHITE",1,"M","Y","Y","Y","Baseline",0,"BASELINE",3,1,"2014-03-12","Word Finding Difficulty In Spontaneous S","ACITM13",13,1,1,null,null,"Y","Y","","<=1",1,0,null,1,"DAYS",5013],["CDISCPILOT01","701","701","01-701-1118","2014-03-12","2014-09-09","Placebo",0,52,"<65",1,"WHITE",1,"M","Y","Y","Y","Week 8",8,"WEEK 8",8,58,"2014-05-08","Word Finding Difficulty In Spontaneous S","ACITM13",13,0,1,-1,-100,"","Y","","2-84",56,2,2,84,"DAYS",5028],["CDISCPILOT01","701","701","01-701-1118","2014-03-12","2014-09-09","Placebo",0,52,"<65",1,"WHITE",1,"M","Y","Y","Y","Week 16",16,"WEEK 16",10,113,"2014-07-02","Word Finding Difficulty In Spontaneous S","ACITM13",13,0,1,-1,-100,"","Y","","85-140",112,1,85,140,"DAYS",5043],["CDISCPILOT01","701","701","01-701-1118","2014-03-12","2014-09-09","Placebo",0,52,"<65",1,"WHITE",1,"M","Y","Y","Y","Week 24",24,"WEEK 24",12,169,"2014-08-27","Word Finding Difficulty In Spontaneous S","ACITM13",13,0,1,-1,-100,"","Y","",">140",168,1,141,null,"DAYS",5058],["CDISCPILOT01","701","701","01-701-1118","2014-03-12","2014-09-09","Placebo",0,52,"<65",1,"WHITE",1,"M","Y","Y","Y","Baseline",0,"BASELINE",3,1,"2014-03-12","Recall Of Test Instructions","ACITM14",14,1,1,null,null,"Y","Y","","<=1",1,0,null,1,"DAYS",5014],["CDISCPILOT01","701","701","01-701-1118","2014-03-12","2014-09-09","Placebo",0,52,"<65",1,"WHITE",1,"M","Y","Y","Y","Week 8",8,"WEEK 8",8,58,"2014-05-08","Recall Of Test Instructions","ACITM14",14,0,1,-1,-100,"","Y","","2-84",56,2,2,84,"DAYS",5029],["CDISCPILOT01","701","701","01-701-1118","2014-03-12","2014-09-09","Placebo",0,52,"<65",1,"WHITE",1,"M","Y","Y","Y","Week 16",16,"WEEK 16",10,113,"2014-07-02","Recall Of Test Instructions","ACITM14",14,0,1,-1,-100,"","Y","","85-140",112,1,85,140,"DAYS",5044],["CDISCPILOT01","701","701","01-701-1118","2014-03-12","2014-09-09","Placebo",0,52,"<65",1,"WHITE",1,"M","Y","Y","Y","Week 24",24,"WEEK 24",12,169,"2014-08-27","Recall Of Test Instructions","ACITM14",14,0,1,-1,-100,"","Y","",">140",168,1,141,null,"DAYS",5059],["CDISCPILOT01","701","701","01-701-1118","2014-03-12","2014-09-09","Placebo",0,52,"<65",1,"WHITE",1,"M","Y","Y","Y","Baseline",0,"BASELINE",3,1,"2014-03-12","Adas-Cog(11) Subscore","ACTOT",15,26,26,null,null,"Y","Y","","<=1",1,0,null,1,"DAYS",5015],["CDISCPILOT01","701","701","01-701-1118","2014-03-12","2014-09-09","Placebo",0,52,"<65",1,"WHITE",1,"M","Y","Y","Y","Week 8",8,"WEEK 8",8,58,"2014-05-08","Adas-Cog(11) Subscore","ACTOT",15,19,26,-7,-26.9230769231,"","Y","","2-84",56,2,2,84,"DAYS",5030],["CDISCPILOT01","701","701","01-701-1118","2014-03-12","2014-09-09","Placebo",0,52,"<65",1,"WHITE",1,"M","Y","Y","Y","Week 16",16,"WEEK 16",10,113,"2014-07-02","Adas-Cog(11) Subscore","ACTOT",15,17,26,-9,-34.6153846154,"","Y","","85-140",112,1,85,140,"DAYS",5045],["CDISCPILOT01","701","701","01-701-1118","2014-03-12","2014-09-09","Placebo",0,52,"<65",1,"WHITE",1,"M","Y","Y","Y","Week 24",24,"WEEK 24",12,169,"2014-08-27","Adas-Cog(11) Subscore","ACTOT",15,15,26,-11,-42.3076923077,"","Y","",">140",168,1,141,null,"DAYS",5060],["CDISCPILOT01","701","701","01-701-1130","2014-02-15","2014-08-16","Placebo",0,84,">80",3,"WHITE",1,"M","Y","Y","Y","Baseline",0,"BASELINE",3,1,"2014-02-15","Word Recall Task","ACITM01",1,4,4,null,null,"Y","Y","","<=1",1,0,null,1,"DAYS",5001],["CDISCPILOT01","701","701","01-701-1130","2014-02-15","2014-08-16","Placebo",0,84,">80",3,"WHITE",1,"M","Y","Y","Y","Week 8",8,"WEEK 8",8,57,"2014-04-12","Word Recall Task","ACITM01",1,4,4,0,0,"","Y","","2-84",56,1,2,84,"DAYS",5016],["CDISCPILOT01","701","701","01-701-1130","2014-02-15","2014-08-16","Placebo",0,84,">80",3,"WHITE",1,"M","Y","Y","Y","Week 16",16,"WEEK 16",10,113,"2014-06-07","Word Recall Task","ACITM01",1,5,4,1,25,"","Y","","85-140",112,1,85,140,"DAYS",5031],["CDISCPILOT01","701","701","01-701-1130","2014-02-15","2014-08-16","Placebo",0,84,">80",3,"WHITE",1,"M","Y","Y","Y","Week 24",24,"WEEK 24",12,169,"2014-08-02","Word Recall Task","ACITM01",1,4,4,0,0,"","Y","",">140",168,1,141,null,"DAYS",5046],["CDISCPILOT01","701","701","01-701-1130","2014-02-15","2014-08-16","Placebo",0,84,">80",3,"WHITE",1,"M","Y","Y","Y","Baseline",0,"BASELINE",3,1,"2014-02-15","Naming Objects And Fingers (Refer To 5 C","ACITM02",2,0,0,null,null,"Y","Y","","<=1",1,0,null,1,"DAYS",5002],["CDISCPILOT01","701","701","01-701-1130","2014-02-15","2014-08-16","Placebo",0,84,">80",3,"WHITE",1,"M","Y","Y","Y","Week 8",8,"WEEK 8",8,57,"2014-04-12","Naming Objects And Fingers (Refer To 5 C","ACITM02",2,0,0,0,null,"","Y","","2-84",56,1,2,84,"DAYS",5017],["CDISCPILOT01","701","701","01-701-1130","2014-02-15","2014-08-16","Placebo",0,84,">80",3,"WHITE",1,"M","Y","Y","Y","Week 16",16,"WEEK 16",10,113,"2014-06-07","Naming Objects And Fingers (Refer To 5 C","ACITM02",2,0,0,0,null,"","Y","","85-140",112,1,85,140,"DAYS",5032],["CDISCPILOT01","701","701","01-701-1130","2014-02-15","2014-08-16","Placebo",0,84,">80",3,"WHITE",1,"M","Y","Y","Y","Week 24",24,"WEEK 24",12,169,"2014-08-02","Naming Objects And Fingers (Refer To 5 C","ACITM02",2,0,0,0,null,"","Y","",">140",168,1,141,null,"DAYS",5047],["CDISCPILOT01","701","701","01-701-1130","2014-02-15","2014-08-16","Placebo",0,84,">80",3,"WHITE",1,"M","Y","Y","Y","Baseline",0,"BASELINE",3,1,"2014-02-15","Delayed Word Recall","ACITM03",3,10,10,null,null,"Y","Y","","<=1",1,0,null,1,"DAYS",5003],["CDISCPILOT01","701","701","01-701-1130","2014-02-15","2014-08-16","Placebo",0,84,">80",3,"WHITE",1,"M","Y","Y","Y","Week 8",8,"WEEK 8",8,57,"2014-04-12","Delayed Word Recall","ACITM03",3,10,10,0,0,"","Y","","2-84",56,1,2,84,"DAYS",5018],["CDISCPILOT01","701","701","01-701-1130","2014-02-15","2014-08-16","Placebo",0,84,">80",3,"WHITE",1,"M","Y","Y","Y","Week 16",16,"WEEK 16",10,113,"2014-06-07","Delayed Word Recall","ACITM03",3,10,10,0,0,"","Y","","85-140",112,1,85,140,"DAYS",5033],["CDISCPILOT01","701","701","01-701-1130","2014-02-15","2014-08-16","Placebo",0,84,">80",3,"WHITE",1,"M","Y","Y","Y","Week 24",24,"WEEK 24",12,169,"2014-08-02","Delayed Word Recall","ACITM03",3,10,10,0,0,"","Y","",">140",168,1,141,null,"DAYS",5048],["CDISCPILOT01","701","701","01-701-1130","2014-02-15","2014-08-16","Placebo",0,84,">80",3,"WHITE",1,"M","Y","Y","Y","Baseline",0,"BASELINE",3,1,"2014-02-15","Commands","ACITM04",4,0,0,null,null,"Y","Y","","<=1",1,0,null,1,"DAYS",5004],["CDISCPILOT01","701","701","01-701-1130","2014-02-15","2014-08-16","Placebo",0,84,">80",3,"WHITE",1,"M","Y","Y","Y","Week 8",8,"WEEK 8",8,57,"2014-04-12","Commands","ACITM04",4,0,0,0,null,"","Y","","2-84",56,1,2,84,"DAYS",5019],["CDISCPILOT01","701","701","01-701-1130","2014-02-15","2014-08-16","Placebo",0,84,">80",3,"WHITE",1,"M","Y","Y","Y","Week 16",16,"WEEK 16",10,113,"2014-06-07","Commands","ACITM04",4,0,0,0,null,"","Y","","85-140",112,1,85,140,"DAYS",5034],["CDISCPILOT01","701","701","01-701-1130","2014-02-15","2014-08-16","Placebo",0,84,">80",3,"WHITE",1,"M","Y","Y","Y","Week 24",24,"WEEK 24",12,169,"2014-08-02","Commands","ACITM04",4,0,0,0,null,"","Y","",">140",168,1,141,null,"DAYS",5049],["CDISCPILOT01","701","701","01-701-1130","2014-02-15","2014-08-16","Placebo",0,84,">80",3,"WHITE",1,"M","Y","Y","Y","Baseline",0,"BASELINE",3,1,"2014-02-15","Constructional Praxis","ACITM05",5,0,0,null,null,"Y","Y","","<=1",1,0,null,1,"DAYS",5005],["CDISCPILOT01","701","701","01-701-1130","2014-02-15","2014-08-16","Placebo",0,84,">80",3,"WHITE",1,"M","Y","Y","Y","Week 8",8,"WEEK 8",8,57,"2014-04-12","Constructional Praxis","ACITM05",5,1,0,1,null,"","Y","","2-84",56,1,2,84,"DAYS",5020],["CDISCPILOT01","701","701","01-701-1130","2014-02-15","2014-08-16","Placebo",0,84,">80",3,"WHITE",1,"M","Y","Y","Y","Week 16",16,"WEEK 16",10,113,"2014-06-07","Constructional Praxis","ACITM05",5,0,0,0,null,"","Y","","85-140",112,1,85,140,"DAYS",5035],["CDISCPILOT01","701","701","01-701-1130","2014-02-15","2014-08-16","Placebo",0,84,">80",3,"WHITE",1,"M","Y","Y","Y","Week 24",24,"WEEK 24",12,169,"2014-08-02","Constructional Praxis","ACITM05",5,1,0,1,null,"","Y","",">140",168,1,141,null,"DAYS",5050],["CDISCPILOT01","701","701","01-701-1130","2014-02-15","2014-08-16","Placebo",0,84,">80",3,"WHITE",1,"M","Y","Y","Y","Baseline",0,"BASELINE",3,1,"2014-02-15","Ideational Praxis","ACITM06",6,2,2,null,null,"Y","Y","","<=1",1,0,null,1,"DAYS",5006],["CDISCPILOT01","701","701","01-701-1130","2014-02-15","2014-08-16","Placebo",0,84,">80",3,"WHITE",1,"M","Y","Y","Y","Week 8",8,"WEEK 8",8,57,"2014-04-12","Ideational Praxis","ACITM06",6,1,2,-1,-50,"","Y","","2-84",56,1,2,84,"DAYS",5021],["CDISCPILOT01","701","701","01-701-1130","2014-02-15","2014-08-16","Placebo",0,84,">80",3,"WHITE",1,"M","Y","Y","Y","Week 16",16,"WEEK 16",10,113,"2014-06-07","Ideational Praxis","ACITM06",6,1,2,-1,-50,"","Y","","85-140",112,1,85,140,"DAYS",5036],["CDISCPILOT01","701","701","01-701-1130","2014-02-15","2014-08-16","Placebo",0,84,">80",3,"WHITE",1,"M","Y","Y","Y","Week 24",24,"WEEK 24",12,169,"2014-08-02","Ideational Praxis","ACITM06",6,1,2,-1,-50,"","Y","",">140",168,1,141,null,"DAYS",5051],["CDISCPILOT01","701","701","01-701-1130","2014-02-15","2014-08-16","Placebo",0,84,">80",3,"WHITE",1,"M","Y","Y","Y","Baseline",0,"BASELINE",3,1,"2014-02-15","Orientation","ACITM07",7,5,5,null,null,"Y","Y","","<=1",1,0,null,1,"DAYS",5007],["CDISCPILOT01","701","701","01-701-1130","2014-02-15","2014-08-16","Placebo",0,84,">80",3,"WHITE",1,"M","Y","Y","Y","Week 8",8,"WEEK 8",8,57,"2014-04-12","Orientation","ACITM07",7,3,5,-2,-40,"","Y","","2-84",56,1,2,84,"DAYS",5022],["CDISCPILOT01","701","701","01-701-1130","2014-02-15","2014-08-16","Placebo",0,84,">80",3,"WHITE",1,"M","Y","Y","Y","Week 16",16,"WEEK 16",10,113,"2014-06-07","Orientation","ACITM07",7,3,5,-2,-40,"","Y","","85-140",112,1,85,140,"DAYS",5037],["CDISCPILOT01","701","701","01-701-1130","2014-02-15","2014-08-16","Placebo",0,84,">80",3,"WHITE",1,"M","Y","Y","Y","Week 24",24,"WEEK 24",12,169,"2014-08-02","Orientation","ACITM07",7,3,5,-2,-40,"","Y","",">140",168,1,141,null,"DAYS",5052],["CDISCPILOT01","701","701","01-701-1130","2014-02-15","2014-08-16","Placebo",0,84,">80",3,"WHITE",1,"M","Y","Y","Y","Baseline",0,"BASELINE",3,1,"2014-02-15","Word Recognition","ACITM08",8,8,8,null,null,"Y","Y","","<=1",1,0,null,1,"DAYS",5008],["CDISCPILOT01","701","701","01-701-1130","2014-02-15","2014-08-16","Placebo",0,84,">80",3,"WHITE",1,"M","Y","Y","Y","Week 8",8,"WEEK 8",8,57,"2014-04-12","Word Recognition","ACITM08",8,3,8,-5,-62.5,"","Y","","2-84",56,1,2,84,"DAYS",5023],["CDISCPILOT01","701","701","01-701-1130","2014-02-15","2014-08-16","Placebo",0,84,">80",3,"WHITE",1,"M","Y","Y","Y","Week 16",16,"WEEK 16",10,113,"2014-06-07","Word Recognition","ACITM08",8,3,8,-5,-62.5,"","Y","","85-140",112,1,85,140,"DAYS",5038],["CDISCPILOT01","701","701","01-701-1130","2014-02-15","2014-08-16","Placebo",0,84,">80",3,"WHITE",1,"M","Y","Y","Y","Week 24",24,"WEEK 24",12,169,"2014-08-02","Word Recognition","ACITM08",8,5,8,-3,-37.5,"","Y","",">140",168,1,141,null,"DAYS",5053],["CDISCPILOT01","701","701","01-701-1130","2014-02-15","2014-08-16","Placebo",0,84,">80",3,"WHITE",1,"M","Y","Y","Y","Baseline",0,"BASELINE",3,1,"2014-02-15","Attention/Visual Search Task","ACITM09",9,25,25,null,null,"Y","Y","","<=1",1,0,null,1,"DAYS",5009],["CDISCPILOT01","701","701","01-701-1130","2014-02-15","2014-08-16","Placebo",0,84,">80",3,"WHITE",1,"M","Y","Y","Y","Week 8",8,"WEEK 8",8,57,"2014-04-12","Attention/Visual Search Task","ACITM09",9,19,25,-6,-24,"","Y","","2-84",56,1,2,84,"DAYS",5024],["CDISCPILOT01","701","701","01-701-1130","2014-02-15","2014-08-16","Placebo",0,84,">80",3,"WHITE",1,"M","Y","Y","Y","Week 16",16,"WEEK 16",10,113,"2014-06-07","Attention/Visual Search Task","ACITM09",9,24,25,-1,-4,"","Y","","85-140",112,1,85,140,"DAYS",5039],["CDISCPILOT01","701","701","01-701-1130","2014-02-15","2014-08-16","Placebo",0,84,">80",3,"WHITE",1,"M","Y","Y","Y","Week 24",24,"WEEK 24",12,169,"2014-08-02","Attention/Visual Search Task","ACITM09",9,28,25,3,12,"","Y","",">140",168,1,141,null,"DAYS",5054],["CDISCPILOT01","701","701","01-701-1130","2014-02-15","2014-08-16","Placebo",0,84,">80",3,"WHITE",1,"M","Y","Y","Y","Baseline",0,"BASELINE",3,1,"2014-02-15","Maze Solution","ACITM10",10,4,4,null,null,"Y","Y","","<=1",1,0,null,1,"DAYS",5010],["CDISCPILOT01","701","701","01-701-1130","2014-02-15","2014-08-16","Placebo",0,84,">80",3,"WHITE",1,"M","Y","Y","Y","Week 8",8,"WEEK 8",8,57,"2014-04-12","Maze Solution","ACITM10",10,8,4,4,100,"","Y","","2-84",56,1,2,84,"DAYS",5025],["CDISCPILOT01","701","701","01-701-1130","2014-02-15","2014-08-16","Placebo",0,84,">80",3,"WHITE",1,"M","Y","Y","Y","Week 16",16,"WEEK 16",10,113,"2014-06-07","Maze Solution","ACITM10",10,7,4,3,75,"","Y","","85-140",112,1,85,140,"DAYS",5040],["CDISCPILOT01","701","701","01-701-1130","2014-02-15","2014-08-16","Placebo",0,84,">80",3,"WHITE",1,"M","Y","Y","Y","Week 24",24,"WEEK 24",12,169,"2014-08-02","Maze Solution","ACITM10",10,5,4,1,25,"","Y","",">140",168,1,141,null,"DAYS",5055],["CDISCPILOT01","701","701","01-701-1130","2014-02-15","2014-08-16","Placebo",0,84,">80",3,"WHITE",1,"M","Y","Y","Y","Baseline",0,"BASELINE",3,1,"2014-02-15","Spoken Language Ability","ACITM11",11,0,0,null,null,"Y","Y","","<=1",1,0,null,1,"DAYS",5011],["CDISCPILOT01","701","701","01-701-1130","2014-02-15","2014-08-16","Placebo",0,84,">80",3,"WHITE",1,"M","Y","Y","Y","Week 8",8,"WEEK 8",8,57,"2014-04-12","Spoken Language Ability","ACITM11",11,0,0,0,null,"","Y","","2-84",56,1,2,84,"DAYS",5026],["CDISCPILOT01","701","701","01-701-1130","2014-02-15","2014-08-16","Placebo",0,84,">80",3,"WHITE",1,"M","Y","Y","Y","Week 16",16,"WEEK 16",10,113,"2014-06-07","Spoken Language Ability","ACITM11",11,0,0,0,null,"","Y","","85-140",112,1,85,140,"DAYS",5041],["CDISCPILOT01","701","701","01-701-1130","2014-02-15","2014-08-16","Placebo",0,84,">80",3,"WHITE",1,"M","Y","Y","Y","Week 24",24,"WEEK 24",12,169,"2014-08-02","Spoken Language Ability","ACITM11",11,0,0,0,null,"","Y","",">140",168,1,141,null,"DAYS",5056],["CDISCPILOT01","701","701","01-701-1130","2014-02-15","2014-08-16","Placebo",0,84,">80",3,"WHITE",1,"M","Y","Y","Y","Baseline",0,"BASELINE",3,1,"2014-02-15","Comprehension Of Spoken Language","ACITM12",12,0,0,null,null,"Y","Y","","<=1",1,0,null,1,"DAYS",5012],["CDISCPILOT01","701","701","01-701-1130","2014-02-15","2014-08-16","Placebo",0,84,">80",3,"WHITE",1,"M","Y","Y","Y","Week 8",8,"WEEK 8",8,57,"2014-04-12","Comprehension Of Spoken Language","ACITM12",12,0,0,0,null,"","Y","","2-84",56,1,2,84,"DAYS",5027],["CDISCPILOT01","701","701","01-701-1130","2014-02-15","2014-08-16","Placebo",0,84,">80",3,"WHITE",1,"M","Y","Y","Y","Week 16",16,"WEEK 16",10,113,"2014-06-07","Comprehension Of Spoken Language","ACITM12",12,0,0,0,null,"","Y","","85-140",112,1,85,140,"DAYS",5042],["CDISCPILOT01","701","701","01-701-1130","2014-02-15","2014-08-16","Placebo",0,84,">80",3,"WHITE",1,"M","Y","Y","Y","Week 24",24,"WEEK 24",12,169,"2014-08-02","Comprehension Of Spoken Language","ACITM12",12,0,0,0,null,"","Y","",">140",168,1,141,null,"DAYS",5057],["CDISCPILOT01","701","701","01-701-1130","2014-02-15","2014-08-16","Placebo",0,84,">80",3,"WHITE",1,"M","Y","Y","Y","Baseline",0,"BASELINE",3,1,"2014-02-15","Word Finding Difficulty In Spontaneous S","ACITM13",13,0,0,null,null,"Y","Y","","<=1",1,0,null,1,"DAYS",5013],["CDISCPILOT01","701","701","01-701-1130","2014-02-15","2014-08-16","Placebo",0,84,">80",3,"WHITE",1,"M","Y","Y","Y","Week 8",8,"WEEK 8",8,57,"2014-04-12","Word Finding Difficulty In Spontaneous S","ACITM13",13,0,0,0,null,"","Y","","2-84",56,1,2,84,"DAYS",5028],["CDISCPILOT01","701","701","01-701-1130","2014-02-15","2014-08-16","Placebo",0,84,">80",3,"WHITE",1,"M","Y","Y","Y","Week 16",16,"WEEK 16",10,113,"2014-06-07","Word Finding Difficulty In Spontaneous S","ACITM13",13,0,0,0,null,"","Y","","85-140",112,1,85,140,"DAYS",5043],["CDISCPILOT01","701","701","01-701-1130","2014-02-15","2014-08-16","Placebo",0,84,">80",3,"WHITE",1,"M","Y","Y","Y","Week 24",24,"WEEK 24",12,169,"2014-08-02","Word Finding Difficulty In Spontaneous S","ACITM13",13,0,0,0,null,"","Y","",">140",168,1,141,null,"DAYS",5058],["CDISCPILOT01","701","701","01-701-1130","2014-02-15","2014-08-16","Placebo",0,84,">80",3,"WHITE",1,"M","Y","Y","Y","Baseline",0,"BASELINE",3,1,"2014-02-15","Recall Of Test Instructions","ACITM14",14,0,0,null,null,"Y","Y","","<=1",1,0,null,1,"DAYS",5014],["CDISCPILOT01","701","701","01-701-1130","2014-02-15","2014-08-16","Placebo",0,84,">80",3,"WHITE",1,"M","Y","Y","Y","Week 8",8,"WEEK 8",8,57,"2014-04-12","Recall Of Test Instructions","ACITM14",14,0,0,0,null,"","Y","","2-84",56,1,2,84,"DAYS",5029],["CDISCPILOT01","701","701","01-701-1130","2014-02-15","2014-08-16","Placebo",0,84,">80",3,"WHITE",1,"M","Y","Y","Y","Week 16",16,"WEEK 16",10,113,"2014-06-07","Recall Of Test Instructions","ACITM14",14,0,0,0,null,"","Y","","85-140",112,1,85,140,"DAYS",5044],["CDISCPILOT01","701","701","01-701-1130","2014-02-15","2014-08-16","Placebo",0,84,">80",3,"WHITE",1,"M","Y","Y","Y","Week 24",24,"WEEK 24",12,169,"2014-08-02","Recall Of Test Instructions","ACITM14",14,0,0,0,null,"","Y","",">140",168,1,141,null,"DAYS",5059],["CDISCPILOT01","701","701","01-701-1130","2014-02-15","2014-08-16","Placebo",0,84,">80",3,"WHITE",1,"M","Y","Y","Y","Baseline",0,"BASELINE",3,1,"2014-02-15","Adas-Cog(11) Subscore","ACTOT",15,19,19,null,null,"Y","Y","","<=1",1,0,null,1,"DAYS",5015],["CDISCPILOT01","701","701","01-701-1130","2014-02-15","2014-08-16","Placebo",0,84,">80",3,"WHITE",1,"M","Y","Y","Y","Week 8",8,"WEEK 8",8,57,"2014-04-12","Adas-Cog(11) Subscore","ACTOT",15,12,19,-7,-36.8421052632,"","Y","","2-84",56,1,2,84,"DAYS",5030],["CDISCPILOT01","701","701","01-701-1130","2014-02-15","2014-08-16","Placebo",0,84,">80",3,"WHITE",1,"M","Y","Y","Y","Week 16",16,"WEEK 16",10,113,"2014-06-07","Adas-Cog(11) Subscore","ACTOT",15,12,19,-7,-36.8421052632,"","Y","","85-140",112,1,85,140,"DAYS",5045],["CDISCPILOT01","701","701","01-701-1130","2014-02-15","2014-08-16","Placebo",0,84,">80",3,"WHITE",1,"M","Y","Y","Y","Week 24",24,"WEEK 24",12,169,"2014-08-02","Adas-Cog(11) Subscore","ACTOT",15,14,19,-5,-26.3157894737,"","Y","",">140",168,1,141,null,"DAYS",5060],["CDISCPILOT01","701","701","01-701-1133","2012-10-28","2013-04-28","Xanomeline High Dose",81,81,">80",3,"WHITE",1,"F","Y","Y","Y","Baseline",0,"BASELINE",3,1,"2012-10-28","Word Recall Task","ACITM01",1,7,7,null,null,"Y","Y","","<=1",1,0,null,1,"DAYS",5001],["CDISCPILOT01","701","701","01-701-1133","2012-10-28","2013-04-28","Xanomeline High Dose",81,81,">80",3,"WHITE",1,"F","Y","Y","Y","Week 8",8,"WEEK 8",8,58,"2012-12-24","Word Recall Task","ACITM01",1,6,7,-1,-14.2857142857,"","Y","","2-84",56,2,2,84,"DAYS",5016],["CDISCPILOT01","701","701","01-701-1133","2012-10-28","2013-04-28","Xanomeline High Dose",81,81,">80",3,"WHITE",1,"F","Y","Y","Y","Week 16",16,"WEEK 16",10,114,"2013-02-18","Word Recall Task","ACITM01",1,6,7,-1,-14.2857142857,"","Y","","85-140",112,2,85,140,"DAYS",5031],["CDISCPILOT01","701","701","01-701-1133","2012-10-28","2013-04-28","Xanomeline High Dose",81,81,">80",3,"WHITE",1,"F","Y","Y","Y","Week 24",24,"WEEK 24",12,173,"2013-04-18","Word Recall Task","ACITM01",1,6,7,-1,-14.2857142857,"","Y","",">140",168,5,141,null,"DAYS",5046],["CDISCPILOT01","701","701","01-701-1133","2012-10-28","2013-04-28","Xanomeline High Dose",81,81,">80",3,"WHITE",1,"F","Y","Y","Y","Baseline",0,"BASELINE",3,1,"2012-10-28","Naming Objects And Fingers (Refer To 5 C","ACITM02",2,0,0,null,null,"Y","Y","","<=1",1,0,null,1,"DAYS",5002],["CDISCPILOT01","701","701","01-701-1133","2012-10-28","2013-04-28","Xanomeline High Dose",81,81,">80",3,"WHITE",1,"F","Y","Y","Y","Week 8",8,"WEEK 8",8,58,"2012-12-24","Naming Objects And Fingers (Refer To 5 C","ACITM02",2,0,0,0,null,"","Y","","2-84",56,2,2,84,"DAYS",5017],["CDISCPILOT01","701","701","01-701-1133","2012-10-28","2013-04-28","Xanomeline High Dose",81,81,">80",3,"WHITE",1,"F","Y","Y","Y","Week 16",16,"WEEK 16",10,114,"2013-02-18","Naming Objects And Fingers (Refer To 5 C","ACITM02",2,0,0,0,null,"","Y","","85-140",112,2,85,140,"DAYS",5032],["CDISCPILOT01","701","701","01-701-1133","2012-10-28","2013-04-28","Xanomeline High Dose",81,81,">80",3,"WHITE",1,"F","Y","Y","Y","Week 24",24,"WEEK 24",12,173,"2013-04-18","Naming Objects And Fingers (Refer To 5 C","ACITM02",2,0,0,0,null,"","Y","",">140",168,5,141,null,"DAYS",5047],["CDISCPILOT01","701","701","01-701-1133","2012-10-28","2013-04-28","Xanomeline High Dose",81,81,">80",3,"WHITE",1,"F","Y","Y","Y","Baseline",0,"BASELINE",3,1,"2012-10-28","Delayed Word Recall","ACITM03",3,9,9,null,null,"Y","Y","","<=1",1,0,null,1,"DAYS",5003],["CDISCPILOT01","701","701","01-701-1133","2012-10-28","2013-04-28","Xanomeline High Dose",81,81,">80",3,"WHITE",1,"F","Y","Y","Y","Week 8",8,"WEEK 8",8,58,"2012-12-24","Delayed Word Recall","ACITM03",3,9,9,0,0,"","Y","","2-84",56,2,2,84,"DAYS",5018],["CDISCPILOT01","701","701","01-701-1133","2012-10-28","2013-04-28","Xanomeline High Dose",81,81,">80",3,"WHITE",1,"F","Y","Y","Y","Week 16",16,"WEEK 16",10,114,"2013-02-18","Delayed Word Recall","ACITM03",3,8,9,-1,-11.1111111111,"","Y","","85-140",112,2,85,140,"DAYS",5033],["CDISCPILOT01","701","701","01-701-1133","2012-10-28","2013-04-28","Xanomeline High Dose",81,81,">80",3,"WHITE",1,"F","Y","Y","Y","Week 24",24,"WEEK 24",12,173,"2013-04-18","Delayed Word Recall","ACITM03",3,10,9,1,11.1111111111,"","Y","",">140",168,5,141,null,"DAYS",5048],["CDISCPILOT01","701","701","01-701-1133","2012-10-28","2013-04-28","Xanomeline High Dose",81,81,">80",3,"WHITE",1,"F","Y","Y","Y","Baseline",0,"BASELINE",3,1,"2012-10-28","Commands","ACITM04",4,0,0,null,null,"Y","Y","","<=1",1,0,null,1,"DAYS",5004],["CDISCPILOT01","701","701","01-701-1133","2012-10-28","2013-04-28","Xanomeline High Dose",81,81,">80",3,"WHITE",1,"F","Y","Y","Y","Week 8",8,"WEEK 8",8,58,"2012-12-24","Commands","ACITM04",4,0,0,0,null,"","Y","","2-84",56,2,2,84,"DAYS",5019],["CDISCPILOT01","701","701","01-701-1133","2012-10-28","2013-04-28","Xanomeline High Dose",81,81,">80",3,"WHITE",1,"F","Y","Y","Y","Week 16",16,"WEEK 16",10,114,"2013-02-18","Commands","ACITM04",4,0,0,0,null,"","Y","","85-140",112,2,85,140,"DAYS",5034],["CDISCPILOT01","701","701","01-701-1133","2012-10-28","2013-04-28","Xanomeline High Dose",81,81,">80",3,"WHITE",1,"F","Y","Y","Y","Week 24",24,"WEEK 24",12,173,"2013-04-18","Commands","ACITM04",4,1,0,1,null,"","Y","",">140",168,5,141,null,"DAYS",5049],["CDISCPILOT01","701","701","01-701-1133","2012-10-28","2013-04-28","Xanomeline High Dose",81,81,">80",3,"WHITE",1,"F","Y","Y","Y","Baseline",0,"BASELINE",3,1,"2012-10-28","Constructional Praxis","ACITM05",5,1,1,null,null,"Y","Y","","<=1",1,0,null,1,"DAYS",5005],["CDISCPILOT01","701","701","01-701-1133","2012-10-28","2013-04-28","Xanomeline High Dose",81,81,">80",3,"WHITE",1,"F","Y","Y","Y","Week 8",8,"WEEK 8",8,58,"2012-12-24","Constructional Praxis","ACITM05",5,1,1,0,0,"","Y","","2-84",56,2,2,84,"DAYS",5020],["CDISCPILOT01","701","701","01-701-1133","2012-10-28","2013-04-28","Xanomeline High Dose",81,81,">80",3,"WHITE",1,"F","Y","Y","Y","Week 16",16,"WEEK 16",10,114,"2013-02-18","Constructional Praxis","ACITM05",5,1,1,0,0,"","Y","","85-140",112,2,85,140,"DAYS",5035],["CDISCPILOT01","701","701","01-701-1133","2012-10-28","2013-04-28","Xanomeline High Dose",81,81,">80",3,"WHITE",1,"F","Y","Y","Y","Week 24",24,"WEEK 24",12,173,"2013-04-18","Constructional Praxis","ACITM05",5,3,1,2,200,"","Y","",">140",168,5,141,null,"DAYS",5050],["CDISCPILOT01","701","701","01-701-1133","2012-10-28","2013-04-28","Xanomeline High Dose",81,81,">80",3,"WHITE",1,"F","Y","Y","Y","Baseline",0,"BASELINE",3,1,"2012-10-28","Ideational Praxis","ACITM06",6,0,0,null,null,"Y","Y","","<=1",1,0,null,1,"DAYS",5006],["CDISCPILOT01","701","701","01-701-1133","2012-10-28","2013-04-28","Xanomeline High Dose",81,81,">80",3,"WHITE",1,"F","Y","Y","Y","Week 8",8,"WEEK 8",8,58,"2012-12-24","Ideational Praxis","ACITM06",6,0,0,0,null,"","Y","","2-84",56,2,2,84,"DAYS",5021],["CDISCPILOT01","701","701","01-701-1133","2012-10-28","2013-04-28","Xanomeline High Dose",81,81,">80",3,"WHITE",1,"F","Y","Y","Y","Week 16",16,"WEEK 16",10,114,"2013-02-18","Ideational Praxis","ACITM06",6,0,0,0,null,"","Y","","85-140",112,2,85,140,"DAYS",5036],["CDISCPILOT01","701","701","01-701-1133","2012-10-28","2013-04-28","Xanomeline High Dose",81,81,">80",3,"WHITE",1,"F","Y","Y","Y","Week 24",24,"WEEK 24",12,173,"2013-04-18","Ideational Praxis","ACITM06",6,0,0,0,null,"","Y","",">140",168,5,141,null,"DAYS",5051],["CDISCPILOT01","701","701","01-701-1133","2012-10-28","2013-04-28","Xanomeline High Dose",81,81,">80",3,"WHITE",1,"F","Y","Y","Y","Baseline",0,"BASELINE",3,1,"2012-10-28","Orientation","ACITM07",7,2,2,null,null,"Y","Y","","<=1",1,0,null,1,"DAYS",5007],["CDISCPILOT01","701","701","01-701-1133","2012-10-28","2013-04-28","Xanomeline High Dose",81,81,">80",3,"WHITE",1,"F","Y","Y","Y","Week 8",8,"WEEK 8",8,58,"2012-12-24","Orientation","ACITM07",7,4,2,2,100,"","Y","","2-84",56,2,2,84,"DAYS",5022],["CDISCPILOT01","701","701","01-701-1133","2012-10-28","2013-04-28","Xanomeline High Dose",81,81,">80",3,"WHITE",1,"F","Y","Y","Y","Week 16",16,"WEEK 16",10,114,"2013-02-18","Orientation","ACITM07",7,5,2,3,150,"","Y","","85-140",112,2,85,140,"DAYS",5037],["CDISCPILOT01","701","701","01-701-1133","2012-10-28","2013-04-28","Xanomeline High Dose",81,81,">80",3,"WHITE",1,"F","Y","Y","Y","Week 24",24,"WEEK 24",12,173,"2013-04-18","Orientation","ACITM07",7,4,2,2,100,"","Y","",">140",168,5,141,null,"DAYS",5052],["CDISCPILOT01","701","701","01-701-1133","2012-10-28","2013-04-28","Xanomeline High Dose",81,81,">80",3,"WHITE",1,"F","Y","Y","Y","Baseline",0,"BASELINE",3,1,"2012-10-28","Word Recognition","ACITM08",8,2,2,null,null,"Y","Y","","<=1",1,0,null,1,"DAYS",5008],["CDISCPILOT01","701","701","01-701-1133","2012-10-28","2013-04-28","Xanomeline High Dose",81,81,">80",3,"WHITE",1,"F","Y","Y","Y","Week 8",8,"WEEK 8",8,58,"2012-12-24","Word Recognition","ACITM08",8,3,2,1,50,"","Y","","2-84",56,2,2,84,"DAYS",5023],["CDISCPILOT01","701","701","01-701-1133","2012-10-28","2013-04-28","Xanomeline High Dose",81,81,">80",3,"WHITE",1,"F","Y","Y","Y","Week 16",16,"WEEK 16",10,114,"2013-02-18","Word Recognition","ACITM08",8,5,2,3,150,"","Y","","85-140",112,2,85,140,"DAYS",5038],["CDISCPILOT01","701","701","01-701-1133","2012-10-28","2013-04-28","Xanomeline High Dose",81,81,">80",3,"WHITE",1,"F","Y","Y","Y","Week 24",24,"WEEK 24",12,173,"2013-04-18","Word Recognition","ACITM08",8,4,2,2,100,"","Y","",">140",168,5,141,null,"DAYS",5053],["CDISCPILOT01","701","701","01-701-1133","2012-10-28","2013-04-28","Xanomeline High Dose",81,81,">80",3,"WHITE",1,"F","Y","Y","Y","Baseline",0,"BASELINE",3,1,"2012-10-28","Attention/Visual Search Task","ACITM09",9,24,24,null,null,"Y","Y","","<=1",1,0,null,1,"DAYS",5009],["CDISCPILOT01","701","701","01-701-1133","2012-10-28","2013-04-28","Xanomeline High Dose",81,81,">80",3,"WHITE",1,"F","Y","Y","Y","Week 8",8,"WEEK 8",8,58,"2012-12-24","Attention/Visual Search Task","ACITM09",9,22,24,-2,-8.33333333333,"","Y","","2-84",56,2,2,84,"DAYS",5024],["CDISCPILOT01","701","701","01-701-1133","2012-10-28","2013-04-28","Xanomeline High Dose",81,81,">80",3,"WHITE",1,"F","Y","Y","Y","Week 16",16,"WEEK 16",10,114,"2013-02-18","Attention/Visual Search Task","ACITM09",9,21,24,-3,-12.5,"","Y","","85-140",112,2,85,140,"DAYS",5039],["CDISCPILOT01","701","701","01-701-1133","2012-10-28","2013-04-28","Xanomeline High Dose",81,81,">80",3,"WHITE",1,"F","Y","Y","Y","Week 24",24,"WEEK 24",12,173,"2013-04-18","Attention/Visual Search Task","ACITM09",9,22,24,-2,-8.33333333333,"","Y","",">140",168,5,141,null,"DAYS",5054],["CDISCPILOT01","701","701","01-701-1133","2012-10-28","2013-04-28","Xanomeline High Dose",81,81,">80",3,"WHITE",1,"F","Y","Y","Y","Baseline",0,"BASELINE",3,1,"2012-10-28","Maze Solution","ACITM10",10,12,12,null,null,"Y","Y","","<=1",1,0,null,1,"DAYS",5010],["CDISCPILOT01","701","701","01-701-1133","2012-10-28","2013-04-28","Xanomeline High Dose",81,81,">80",3,"WHITE",1,"F","Y","Y","Y","Week 8",8,"WEEK 8",8,58,"2012-12-24","Maze Solution","ACITM10",10,240,12,228,1900,"","Y","","2-84",56,2,2,84,"DAYS",5025],["CDISCPILOT01","701","701","01-701-1133","2012-10-28","2013-04-28","Xanomeline High Dose",81,81,">80",3,"WHITE",1,"F","Y","Y","Y","Week 16",16,"WEEK 16",10,114,"2013-02-18","Maze Solution","ACITM10",10,16,12,4,33.3333333333,"","Y","","85-140",112,2,85,140,"DAYS",5040],["CDISCPILOT01","701","701","01-701-1133","2012-10-28","2013-04-28","Xanomeline High Dose",81,81,">80",3,"WHITE",1,"F","Y","Y","Y","Week 24",24,"WEEK 24",12,173,"2013-04-18","Maze Solution","ACITM10",10,14,12,2,16.6666666667,"","Y","",">140",168,5,141,null,"DAYS",5055],["CDISCPILOT01","701","701","01-701-1133","2012-10-28","2013-04-28","Xanomeline High Dose",81,81,">80",3,"WHITE",1,"F","Y","Y","Y","Baseline",0,"BASELINE",3,1,"2012-10-28","Spoken Language Ability","ACITM11",11,0,0,null,null,"Y","Y","","<=1",1,0,null,1,"DAYS",5011],["CDISCPILOT01","701","701","01-701-1133","2012-10-28","2013-04-28","Xanomeline High Dose",81,81,">80",3,"WHITE",1,"F","Y","Y","Y","Week 8",8,"WEEK 8",8,58,"2012-12-24","Spoken Language Ability","ACITM11",11,1,0,1,null,"","Y","","2-84",56,2,2,84,"DAYS",5026],["CDISCPILOT01","701","701","01-701-1133","2012-10-28","2013-04-28","Xanomeline High Dose",81,81,">80",3,"WHITE",1,"F","Y","Y","Y","Week 16",16,"WEEK 16",10,114,"2013-02-18","Spoken Language Ability","ACITM11",11,1,0,1,null,"","Y","","85-140",112,2,85,140,"DAYS",5041],["CDISCPILOT01","701","701","01-701-1133","2012-10-28","2013-04-28","Xanomeline High Dose",81,81,">80",3,"WHITE",1,"F","Y","Y","Y","Week 24",24,"WEEK 24",12,173,"2013-04-18","Spoken Language Ability","ACITM11",11,0,0,0,null,"","Y","",">140",168,5,141,null,"DAYS",5056],["CDISCPILOT01","701","701","01-701-1133","2012-10-28","2013-04-28","Xanomeline High Dose",81,81,">80",3,"WHITE",1,"F","Y","Y","Y","Baseline",0,"BASELINE",3,1,"2012-10-28","Comprehension Of Spoken Language","ACITM12",12,0,0,null,null,"Y","Y","","<=1",1,0,null,1,"DAYS",5012],["CDISCPILOT01","701","701","01-701-1133","2012-10-28","2013-04-28","Xanomeline High Dose",81,81,">80",3,"WHITE",1,"F","Y","Y","Y","Week 8",8,"WEEK 8",8,58,"2012-12-24","Comprehension Of Spoken Language","ACITM12",12,2,0,2,null,"","Y","","2-84",56,2,2,84,"DAYS",5027],["CDISCPILOT01","701","701","01-701-1133","2012-10-28","2013-04-28","Xanomeline High Dose",81,81,">80",3,"WHITE",1,"F","Y","Y","Y","Week 16",16,"WEEK 16",10,114,"2013-02-18","Comprehension Of Spoken Language","ACITM12",12,2,0,2,null,"","Y","","85-140",112,2,85,140,"DAYS",5042],["CDISCPILOT01","701","701","01-701-1133","2012-10-28","2013-04-28","Xanomeline High Dose",81,81,">80",3,"WHITE",1,"F","Y","Y","Y","Week 24",24,"WEEK 24",12,173,"2013-04-18","Comprehension Of Spoken Language","ACITM12",12,0,0,0,null,"","Y","",">140",168,5,141,null,"DAYS",5057],["CDISCPILOT01","701","701","01-701-1133","2012-10-28","2013-04-28","Xanomeline High Dose",81,81,">80",3,"WHITE",1,"F","Y","Y","Y","Baseline",0,"BASELINE",3,1,"2012-10-28","Word Finding Difficulty In Spontaneous S","ACITM13",13,1,1,null,null,"Y","Y","","<=1",1,0,null,1,"DAYS",5013],["CDISCPILOT01","701","701","01-701-1133","2012-10-28","2013-04-28","Xanomeline High Dose",81,81,">80",3,"WHITE",1,"F","Y","Y","Y","Week 8",8,"WEEK 8",8,58,"2012-12-24","Word Finding Difficulty In Spontaneous S","ACITM13",13,1,1,0,0,"","Y","","2-84",56,2,2,84,"DAYS",5028],["CDISCPILOT01","701","701","01-701-1133","2012-10-28","2013-04-28","Xanomeline High Dose",81,81,">80",3,"WHITE",1,"F","Y","Y","Y","Week 16",16,"WEEK 16",10,114,"2013-02-18","Word Finding Difficulty In Spontaneous S","ACITM13",13,1,1,0,0,"","Y","","85-140",112,2,85,140,"DAYS",5043],["CDISCPILOT01","701","701","01-701-1133","2012-10-28","2013-04-28","Xanomeline High Dose",81,81,">80",3,"WHITE",1,"F","Y","Y","Y","Week 24",24,"WEEK 24",12,173,"2013-04-18","Word Finding Difficulty In Spontaneous S","ACITM13",13,0,1,-1,-100,"","Y","",">140",168,5,141,null,"DAYS",5058],["CDISCPILOT01","701","701","01-701-1133","2012-10-28","2013-04-28","Xanomeline High Dose",81,81,">80",3,"WHITE",1,"F","Y","Y","Y","Baseline",0,"BASELINE",3,1,"2012-10-28","Recall Of Test Instructions","ACITM14",14,0,0,null,null,"Y","Y","","<=1",1,0,null,1,"DAYS",5014],["CDISCPILOT01","701","701","01-701-1133","2012-10-28","2013-04-28","Xanomeline High Dose",81,81,">80",3,"WHITE",1,"F","Y","Y","Y","Week 8",8,"WEEK 8",8,58,"2012-12-24","Recall Of Test Instructions","ACITM14",14,2,0,2,null,"","Y","","2-84",56,2,2,84,"DAYS",5029],["CDISCPILOT01","701","701","01-701-1133","2012-10-28","2013-04-28","Xanomeline High Dose",81,81,">80",3,"WHITE",1,"F","Y","Y","Y","Week 16",16,"WEEK 16",10,114,"2013-02-18","Recall Of Test Instructions","ACITM14",14,1,0,1,null,"","Y","","85-140",112,2,85,140,"DAYS",5044],["CDISCPILOT01","701","701","01-701-1133","2012-10-28","2013-04-28","Xanomeline High Dose",81,81,">80",3,"WHITE",1,"F","Y","Y","Y","Week 24",24,"WEEK 24",12,173,"2013-04-18","Recall Of Test Instructions","ACITM14",14,0,0,0,null,"","Y","",">140",168,5,141,null,"DAYS",5059],["CDISCPILOT01","701","701","01-701-1133","2012-10-28","2013-04-28","Xanomeline High Dose",81,81,">80",3,"WHITE",1,"F","Y","Y","Y","Baseline",0,"BASELINE",3,1,"2012-10-28","Adas-Cog(11) Subscore","ACTOT",15,13,13,null,null,"Y","Y","","<=1",1,0,null,1,"DAYS",5015],["CDISCPILOT01","701","701","01-701-1133","2012-10-28","2013-04-28","Xanomeline High Dose",81,81,">80",3,"WHITE",1,"F","Y","Y","Y","Week 8",8,"WEEK 8",8,58,"2012-12-24","Adas-Cog(11) Subscore","ACTOT",15,20,13,7,53.8461538462,"","Y","","2-84",56,2,2,84,"DAYS",5030],["CDISCPILOT01","701","701","01-701-1133","2012-10-28","2013-04-28","Xanomeline High Dose",81,81,">80",3,"WHITE",1,"F","Y","Y","Y","Week 16",16,"WEEK 16",10,114,"2013-02-18","Adas-Cog(11) Subscore","ACTOT",15,22,13,9,69.2307692308,"","Y","","85-140",112,2,85,140,"DAYS",5045],["CDISCPILOT01","701","701","01-701-1133","2012-10-28","2013-04-28","Xanomeline High Dose",81,81,">80",3,"WHITE",1,"F","Y","Y","Y","Week 24",24,"WEEK 24",12,173,"2013-04-18","Adas-Cog(11) Subscore","ACTOT",15,18,13,5,38.4615384615,"","Y","",">140",168,5,141,null,"DAYS",5060],["CDISCPILOT01","701","701","01-701-1146","2013-05-20","2013-06-26","Xanomeline High Dose",81,75,"65-80",2,"WHITE",1,"F","Y","Y","N","Baseline",0,"BASELINE",3,1,"2013-05-20","Word Recall Task","ACITM01",1,5,5,null,null,"Y","Y","","<=1",1,0,null,1,"DAYS",5001],["CDISCPILOT01","701","701","01-701-1146","2013-05-20","2013-06-26","Xanomeline High Dose",81,75,"65-80",2,"WHITE",1,"F","Y","Y","N","Week 8",8,"WEEK 6",7,42,"2013-06-30","Word Recall Task","ACITM01",1,4,5,-1,-20,"","Y","","2-84",56,14,2,84,"DAYS",5016],["CDISCPILOT01","701","701","01-701-1146","2013-05-20","2013-06-26","Xanomeline High Dose",81,75,"65-80",2,"WHITE",1,"F","Y","Y","N","Baseline",0,"BASELINE",3,1,"2013-05-20","Naming Objects And Fingers (Refer To 5 C","ACITM02",2,0,0,null,null,"Y","Y","","<=1",1,0,null,1,"DAYS",5002],["CDISCPILOT01","701","701","01-701-1146","2013-05-20","2013-06-26","Xanomeline High Dose",81,75,"65-80",2,"WHITE",1,"F","Y","Y","N","Week 8",8,"WEEK 6",7,42,"2013-06-30","Naming Objects And Fingers (Refer To 5 C","ACITM02",2,0,0,0,null,"","Y","","2-84",56,14,2,84,"DAYS",5017],["CDISCPILOT01","701","701","01-701-1146","2013-05-20","2013-06-26","Xanomeline High Dose",81,75,"65-80",2,"WHITE",1,"F","Y","Y","N","Baseline",0,"BASELINE",3,1,"2013-05-20","Delayed Word Recall","ACITM03",3,9,9,null,null,"Y","Y","","<=1",1,0,null,1,"DAYS",5003],["CDISCPILOT01","701","701","01-701-1146","2013-05-20","2013-06-26","Xanomeline High Dose",81,75,"65-80",2,"WHITE",1,"F","Y","Y","N","Week 8",8,"WEEK 6",7,42,"2013-06-30","Delayed Word Recall","ACITM03",3,9,9,0,0,"","Y","","2-84",56,14,2,84,"DAYS",5018],["CDISCPILOT01","701","701","01-701-1146","2013-05-20","2013-06-26","Xanomeline High Dose",81,75,"65-80",2,"WHITE",1,"F","Y","Y","N","Baseline",0,"BASELINE",3,1,"2013-05-20","Commands","ACITM04",4,0,0,null,null,"Y","Y","","<=1",1,0,null,1,"DAYS",5004],["CDISCPILOT01","701","701","01-701-1146","2013-05-20","2013-06-26","Xanomeline High Dose",81,75,"65-80",2,"WHITE",1,"F","Y","Y","N","Week 8",8,"WEEK 6",7,42,"2013-06-30","Commands","ACITM04",4,0,0,0,null,"","Y","","2-84",56,14,2,84,"DAYS",5019],["CDISCPILOT01","701","701","01-701-1146","2013-05-20","2013-06-26","Xanomeline High Dose",81,75,"65-80",2,"WHITE",1,"F","Y","Y","N","Baseline",0,"BASELINE",3,1,"2013-05-20","Constructional Praxis","ACITM05",5,0,0,null,null,"Y","Y","","<=1",1,0,null,1,"DAYS",5005],["CDISCPILOT01","701","701","01-701-1146","2013-05-20","2013-06-26","Xanomeline High Dose",81,75,"65-80",2,"WHITE",1,"F","Y","Y","N","Week 8",8,"WEEK 6",7,42,"2013-06-30","Constructional Praxis","ACITM05",5,0,0,0,null,"","Y","","2-84",56,14,2,84,"DAYS",5020],["CDISCPILOT01","701","701","01-701-1146","2013-05-20","2013-06-26","Xanomeline High Dose",81,75,"65-80",2,"WHITE",1,"F","Y","Y","N","Baseline",0,"BASELINE",3,1,"2013-05-20","Ideational Praxis","ACITM06",6,1,1,null,null,"Y","Y","","<=1",1,0,null,1,"DAYS",5006],["CDISCPILOT01","701","701","01-701-1146","2013-05-20","2013-06-26","Xanomeline High Dose",81,75,"65-80",2,"WHITE",1,"F","Y","Y","N","Week 8",8,"WEEK 6",7,42,"2013-06-30","Ideational Praxis","ACITM06",6,1,1,0,0,"","Y","","2-84",56,14,2,84,"DAYS",5021],["CDISCPILOT01","701","701","01-701-1146","2013-05-20","2013-06-26","Xanomeline High Dose",81,75,"65-80",2,"WHITE",1,"F","Y","Y","N","Baseline",0,"BASELINE",3,1,"2013-05-20","Orientation","ACITM07",7,0,0,null,null,"Y","Y","","<=1",1,0,null,1,"DAYS",5007],["CDISCPILOT01","701","701","01-701-1146","2013-05-20","2013-06-26","Xanomeline High Dose",81,75,"65-80",2,"WHITE",1,"F","Y","Y","N","Week 8",8,"WEEK 6",7,42,"2013-06-30","Orientation","ACITM07",7,0,0,0,null,"","Y","","2-84",56,14,2,84,"DAYS",5022],["CDISCPILOT01","701","701","01-701-1146","2013-05-20","2013-06-26","Xanomeline High Dose",81,75,"65-80",2,"WHITE",1,"F","Y","Y","N","Baseline",0,"BASELINE",3,1,"2013-05-20","Word Recognition","ACITM08",8,4,4,null,null,"Y","Y","","<=1",1,0,null,1,"DAYS",5008],["CDISCPILOT01","701","701","01-701-1146","2013-05-20","2013-06-26","Xanomeline High Dose",81,75,"65-80",2,"WHITE",1,"F","Y","Y","N","Week 8",8,"WEEK 6",7,42,"2013-06-30","Word Recognition","ACITM08",8,3,4,-1,-25,"","Y","","2-84",56,14,2,84,"DAYS",5023],["CDISCPILOT01","701","701","01-701-1146","2013-05-20","2013-06-26","Xanomeline High Dose",81,75,"65-80",2,"WHITE",1,"F","Y","Y","N","Baseline",0,"BASELINE",3,1,"2013-05-20","Attention/Visual Search Task","ACITM09",9,17,17,null,null,"Y","Y","","<=1",1,0,null,1,"DAYS",5009],["CDISCPILOT01","701","701","01-701-1146","2013-05-20","2013-06-26","Xanomeline High Dose",81,75,"65-80",2,"WHITE",1,"F","Y","Y","N","Week 8",8,"WEEK 6",7,42,"2013-06-30","Attention/Visual Search Task","ACITM09",9,19,17,2,11.7647058824,"","Y","","2-84",56,14,2,84,"DAYS",5024],["CDISCPILOT01","701","701","01-701-1146","2013-05-20","2013-06-26","Xanomeline High Dose",81,75,"65-80",2,"WHITE",1,"F","Y","Y","N","Baseline",0,"BASELINE",3,1,"2013-05-20","Maze Solution","ACITM10",10,3,3,null,null,"Y","Y","","<=1",1,0,null,1,"DAYS",5010],["CDISCPILOT01","701","701","01-701-1146","2013-05-20","2013-06-26","Xanomeline High Dose",81,75,"65-80",2,"WHITE",1,"F","Y","Y","N","Week 8",8,"WEEK 6",7,42,"2013-06-30","Maze Solution","ACITM10",10,13,3,10,333.333333333,"","Y","","2-84",56,14,2,84,"DAYS",5025],["CDISCPILOT01","701","701","01-701-1146","2013-05-20","2013-06-26","Xanomeline High Dose",81,75,"65-80",2,"WHITE",1,"F","Y","Y","N","Baseline",0,"BASELINE",3,1,"2013-05-20","Spoken Language Ability","ACITM11",11,1,1,null,null,"Y","Y","","<=1",1,0,null,1,"DAYS",5011],["CDISCPILOT01","701","701","01-701-1146","2013-05-20","2013-06-26","Xanomeline High Dose",81,75,"65-80",2,"WHITE",1,"F","Y","Y","N","Week 8",8,"WEEK 6",7,42,"2013-06-30","Spoken Language Ability","ACITM11",11,0,1,-1,-100,"","Y","","2-84",56,14,2,84,"DAYS",5026],["CDISCPILOT01","701","701","01-701-1146","2013-05-20","2013-06-26","Xanomeline High Dose",81,75,"65-80",2,"WHITE",1,"F","Y","Y","N","Baseline",0,"BASELINE",3,1,"2013-05-20","Comprehension Of Spoken Language","ACITM12",12,0,0,null,null,"Y","Y","","<=1",1,0,null,1,"DAYS",5012],["CDISCPILOT01","701","701","01-701-1146","2013-05-20","2013-06-26","Xanomeline High Dose",81,75,"65-80",2,"WHITE",1,"F","Y","Y","N","Week 8",8,"WEEK 6",7,42,"2013-06-30","Comprehension Of Spoken Language","ACITM12",12,0,0,0,null,"","Y","","2-84",56,14,2,84,"DAYS",5027],["CDISCPILOT01","701","701","01-701-1146","2013-05-20","2013-06-26","Xanomeline High Dose",81,75,"65-80",2,"WHITE",1,"F","Y","Y","N","Baseline",0,"BASELINE",3,1,"2013-05-20","Word Finding Difficulty In Spontaneous S","ACITM13",13,0,0,null,null,"Y","Y","","<=1",1,0,null,1,"DAYS",5013],["CDISCPILOT01","701","701","01-701-1146","2013-05-20","2013-06-26","Xanomeline High Dose",81,75,"65-80",2,"WHITE",1,"F","Y","Y","N","Week 8",8,"WEEK 6",7,42,"2013-06-30","Word Finding Difficulty In Spontaneous S","ACITM13",13,0,0,0,null,"","Y","","2-84",56,14,2,84,"DAYS",5028],["CDISCPILOT01","701","701","01-701-1146","2013-05-20","2013-06-26","Xanomeline High Dose",81,75,"65-80",2,"WHITE",1,"F","Y","Y","N","Baseline",0,"BASELINE",3,1,"2013-05-20","Recall Of Test Instructions","ACITM14",14,0,0,null,null,"Y","Y","","<=1",1,0,null,1,"DAYS",5014],["CDISCPILOT01","701","701","01-701-1146","2013-05-20","2013-06-26","Xanomeline High Dose",81,75,"65-80",2,"WHITE",1,"F","Y","Y","N","Week 8",8,"WEEK 6",7,42,"2013-06-30","Recall Of Test Instructions","ACITM14",14,2,0,2,null,"","Y","","2-84",56,14,2,84,"DAYS",5029],["CDISCPILOT01","701","701","01-701-1146","2013-05-20","2013-06-26","Xanomeline High Dose",81,75,"65-80",2,"WHITE",1,"F","Y","Y","N","Baseline",0,"BASELINE",3,1,"2013-05-20","Adas-Cog(11) Subscore","ACTOT",15,11,11,null,null,"Y","Y","","<=1",1,0,null,1,"DAYS",5015],["CDISCPILOT01","701","701","01-701-1146","2013-05-20","2013-06-26","Xanomeline High Dose",81,75,"65-80",2,"WHITE",1,"F","Y","Y","N","Week 8",8,"WEEK 6",7,42,"2013-06-30","Adas-Cog(11) Subscore","ACTOT",15,10,11,-1,-9.09090909091,"","Y","","2-84",56,14,2,84,"DAYS",5030],["CDISCPILOT01","701","701","01-701-1146","2013-05-20","2013-06-26","Xanomeline High Dose",81,75,"65-80",2,"WHITE",1,"F","Y","Y","N","Week 16",16,"WEEK 6",7,42,"2013-06-30","Adas-Cog(11) Subscore","ACTOT",15,10,11,-1,-9.09090909091,"","Y","LOCF","85-140",112,70,85,140,"DAYS",5030],["CDISCPILOT01","701","701","01-701-1146","2013-05-20","2013-06-26","Xanomeline High Dose",81,75,"65-80",2,"WHITE",1,"F","Y","Y","N","Week 24",24,"WEEK 6",7,42,"2013-06-30","Adas-Cog(11) Subscore","ACTOT",15,10,11,-1,-9.09090909091,"","Y","LOCF",">140",168,126,141,null,"DAYS",5030],["CDISCPILOT01","701","701","01-701-1148","2013-08-23","2014-02-20","Xanomeline High Dose",81,57,"<65",1,"WHITE",1,"M","Y","Y","Y","Baseline",0,"BASELINE",3,1,"2013-08-23","Word Recall Task","ACITM01",1,4,4,null,null,"Y","Y","","<=1",1,0,null,1,"DAYS",5001],["CDISCPILOT01","701","701","01-701-1148","2013-08-23","2014-02-20","Xanomeline High Dose",81,57,"<65",1,"WHITE",1,"M","Y","Y","Y","Week 8",8,"WEEK 8",8,57,"2013-10-18","Word Recall Task","ACITM01",1,4,4,0,0,"","Y","","2-84",56,1,2,84,"DAYS",5016],["CDISCPILOT01","701","701","01-701-1148","2013-08-23","2014-02-20","Xanomeline High Dose",81,57,"<65",1,"WHITE",1,"M","Y","Y","Y","Week 16",16,"WEEK 16",10,113,"2013-12-13","Word Recall Task","ACITM01",1,4,4,0,0,"","Y","","85-140",112,1,85,140,"DAYS",5031],["CDISCPILOT01","701","701","01-701-1148","2013-08-23","2014-02-20","Xanomeline High Dose",81,57,"<65",1,"WHITE",1,"M","Y","Y","Y","Week 24",24,"WEEK 24",12,170,"2014-02-08","Word Recall Task","ACITM01",1,6,4,2,50,"","Y","",">140",168,2,141,null,"DAYS",5046],["CDISCPILOT01","701","701","01-701-1148","2013-08-23","2014-02-20","Xanomeline High Dose",81,57,"<65",1,"WHITE",1,"M","Y","Y","Y","Baseline",0,"BASELINE",3,1,"2013-08-23","Naming Objects And Fingers (Refer To 5 C","ACITM02",2,0,0,null,null,"Y","Y","","<=1",1,0,null,1,"DAYS",5002],["CDISCPILOT01","701","701","01-701-1148","2013-08-23","2014-02-20","Xanomeline High Dose",81,57,"<65",1,"WHITE",1,"M","Y","Y","Y","Week 8",8,"WEEK 8",8,57,"2013-10-18","Naming Objects And Fingers (Refer To 5 C","ACITM02",2,0,0,0,null,"","Y","","2-84",56,1,2,84,"DAYS",5017],["CDISCPILOT01","701","701","01-701-1148","2013-08-23","2014-02-20","Xanomeline High Dose",81,57,"<65",1,"WHITE",1,"M","Y","Y","Y","Week 16",16,"WEEK 16",10,113,"2013-12-13","Naming Objects And Fingers (Refer To 5 C","ACITM02",2,0,0,0,null,"","Y","","85-140",112,1,85,140,"DAYS",5032],["CDISCPILOT01","701","701","01-701-1148","2013-08-23","2014-02-20","Xanomeline High Dose",81,57,"<65",1,"WHITE",1,"M","Y","Y","Y","Week 24",24,"WEEK 24",12,170,"2014-02-08","Naming Objects And Fingers (Refer To 5 C","ACITM02",2,0,0,0,null,"","Y","",">140",168,2,141,null,"DAYS",5047],["CDISCPILOT01","701","701","01-701-1148","2013-08-23","2014-02-20","Xanomeline High Dose",81,57,"<65",1,"WHITE",1,"M","Y","Y","Y","Baseline",0,"BASELINE",3,1,"2013-08-23","Delayed Word Recall","ACITM03",3,3,3,null,null,"Y","Y","","<=1",1,0,null,1,"DAYS",5003],["CDISCPILOT01","701","701","01-701-1148","2013-08-23","2014-02-20","Xanomeline High Dose",81,57,"<65",1,"WHITE",1,"M","Y","Y","Y","Week 8",8,"WEEK 8",8,57,"2013-10-18","Delayed Word Recall","ACITM03",3,3,3,0,0,"","Y","","2-84",56,1,2,84,"DAYS",5018],["CDISCPILOT01","701","701","01-701-1148","2013-08-23","2014-02-20","Xanomeline High Dose",81,57,"<65",1,"WHITE",1,"M","Y","Y","Y","Week 16",16,"WEEK 16",10,113,"2013-12-13","Delayed Word Recall","ACITM03",3,4,3,1,33.3333333333,"","Y","","85-140",112,1,85,140,"DAYS",5033],["CDISCPILOT01","701","701","01-701-1148","2013-08-23","2014-02-20","Xanomeline High Dose",81,57,"<65",1,"WHITE",1,"M","Y","Y","Y","Week 24",24,"WEEK 24",12,170,"2014-02-08","Delayed Word Recall","ACITM03",3,5,3,2,66.6666666667,"","Y","",">140",168,2,141,null,"DAYS",5048],["CDISCPILOT01","701","701","01-701-1148","2013-08-23","2014-02-20","Xanomeline High Dose",81,57,"<65",1,"WHITE",1,"M","Y","Y","Y","Baseline",0,"BASELINE",3,1,"2013-08-23","Commands","ACITM04",4,0,0,null,null,"Y","Y","","<=1",1,0,null,1,"DAYS",5004],["CDISCPILOT01","701","701","01-701-1148","2013-08-23","2014-02-20","Xanomeline High Dose",81,57,"<65",1,"WHITE",1,"M","Y","Y","Y","Week 8",8,"WEEK 8",8,57,"2013-10-18","Commands","ACITM04",4,0,0,0,null,"","Y","","2-84",56,1,2,84,"DAYS",5019],["CDISCPILOT01","701","701","01-701-1148","2013-08-23","2014-02-20","Xanomeline High Dose",81,57,"<65",1,"WHITE",1,"M","Y","Y","Y","Week 16",16,"WEEK 16",10,113,"2013-12-13","Commands","ACITM04",4,0,0,0,null,"","Y","","85-140",112,1,85,140,"DAYS",5034],["CDISCPILOT01","701","701","01-701-1148","2013-08-23","2014-02-20","Xanomeline High Dose",81,57,"<65",1,"WHITE",1,"M","Y","Y","Y","Week 24",24,"WEEK 24",12,170,"2014-02-08","Commands","ACITM04",4,0,0,0,null,"","Y","",">140",168,2,141,null,"DAYS",5049],["CDISCPILOT01","701","701","01-701-1148","2013-08-23","2014-02-20","Xanomeline High Dose",81,57,"<65",1,"WHITE",1,"M","Y","Y","Y","Baseline",0,"BASELINE",3,1,"2013-08-23","Constructional Praxis","ACITM05",5,0,0,null,null,"Y","Y","","<=1",1,0,null,1,"DAYS",5005],["CDISCPILOT01","701","701","01-701-1148","2013-08-23","2014-02-20","Xanomeline High Dose",81,57,"<65",1,"WHITE",1,"M","Y","Y","Y","Week 8",8,"WEEK 8",8,57,"2013-10-18","Constructional Praxis","ACITM05",5,1,0,1,null,"","Y","","2-84",56,1,2,84,"DAYS",5020],["CDISCPILOT01","701","701","01-701-1148","2013-08-23","2014-02-20","Xanomeline High Dose",81,57,"<65",1,"WHITE",1,"M","Y","Y","Y","Week 16",16,"WEEK 16",10,113,"2013-12-13","Constructional Praxis","ACITM05",5,2,0,2,null,"","Y","","85-140",112,1,85,140,"DAYS",5035],["CDISCPILOT01","701","701","01-701-1148","2013-08-23","2014-02-20","Xanomeline High Dose",81,57,"<65",1,"WHITE",1,"M","Y","Y","Y","Week 24",24,"WEEK 24",12,170,"2014-02-08","Constructional Praxis","ACITM05",5,1,0,1,null,"","Y","",">140",168,2,141,null,"DAYS",5050],["CDISCPILOT01","701","701","01-701-1148","2013-08-23","2014-02-20","Xanomeline High Dose",81,57,"<65",1,"WHITE",1,"M","Y","Y","Y","Baseline",0,"BASELINE",3,1,"2013-08-23","Ideational Praxis","ACITM06",6,0,0,null,null,"Y","Y","","<=1",1,0,null,1,"DAYS",5006],["CDISCPILOT01","701","701","01-701-1148","2013-08-23","2014-02-20","Xanomeline High Dose",81,57,"<65",1,"WHITE",1,"M","Y","Y","Y","Week 8",8,"WEEK 8",8,57,"2013-10-18","Ideational Praxis","ACITM06",6,0,0,0,null,"","Y","","2-84",56,1,2,84,"DAYS",5021],["CDISCPILOT01","701","701","01-701-1148","2013-08-23","2014-02-20","Xanomeline High Dose",81,57,"<65",1,"WHITE",1,"M","Y","Y","Y","Week 16",16,"WEEK 16",10,113,"2013-12-13","Ideational Praxis","ACITM06",6,0,0,0,null,"","Y","","85-140",112,1,85,140,"DAYS",5036],["CDISCPILOT01","701","701","01-701-1148","2013-08-23","2014-02-20","Xanomeline High Dose",81,57,"<65",1,"WHITE",1,"M","Y","Y","Y","Week 24",24,"WEEK 24",12,170,"2014-02-08","Ideational Praxis","ACITM06",6,0,0,0,null,"","Y","",">140",168,2,141,null,"DAYS",5051],["CDISCPILOT01","701","701","01-701-1148","2013-08-23","2014-02-20","Xanomeline High Dose",81,57,"<65",1,"WHITE",1,"M","Y","Y","Y","Baseline",0,"BASELINE",3,1,"2013-08-23","Orientation","ACITM07",7,0,0,null,null,"Y","Y","","<=1",1,0,null,1,"DAYS",5007],["CDISCPILOT01","701","701","01-701-1148","2013-08-23","2014-02-20","Xanomeline High Dose",81,57,"<65",1,"WHITE",1,"M","Y","Y","Y","Week 8",8,"WEEK 8",8,57,"2013-10-18","Orientation","ACITM07",7,0,0,0,null,"","Y","","2-84",56,1,2,84,"DAYS",5022],["CDISCPILOT01","701","701","01-701-1148","2013-08-23","2014-02-20","Xanomeline High Dose",81,57,"<65",1,"WHITE",1,"M","Y","Y","Y","Week 16",16,"WEEK 16",10,113,"2013-12-13","Orientation","ACITM07",7,0,0,0,null,"","Y","","85-140",112,1,85,140,"DAYS",5037],["CDISCPILOT01","701","701","01-701-1148","2013-08-23","2014-02-20","Xanomeline High Dose",81,57,"<65",1,"WHITE",1,"M","Y","Y","Y","Week 24",24,"WEEK 24",12,170,"2014-02-08","Orientation","ACITM07",7,0,0,0,null,"","Y","",">140",168,2,141,null,"DAYS",5052],["CDISCPILOT01","701","701","01-701-1148","2013-08-23","2014-02-20","Xanomeline High Dose",81,57,"<65",1,"WHITE",1,"M","Y","Y","Y","Baseline",0,"BASELINE",3,1,"2013-08-23","Word Recognition","ACITM08",8,1,1,null,null,"Y","Y","","<=1",1,0,null,1,"DAYS",5008],["CDISCPILOT01","701","701","01-701-1148","2013-08-23","2014-02-20","Xanomeline High Dose",81,57,"<65",1,"WHITE",1,"M","Y","Y","Y","Week 8",8,"WEEK 8",8,57,"2013-10-18","Word Recognition","ACITM08",8,1,1,0,0,"","Y","","2-84",56,1,2,84,"DAYS",5023],["CDISCPILOT01","701","701","01-701-1148","2013-08-23","2014-02-20","Xanomeline High Dose",81,57,"<65",1,"WHITE",1,"M","Y","Y","Y","Week 16",16,"WEEK 16",10,113,"2013-12-13","Word Recognition","ACITM08",8,0,1,-1,-100,"","Y","","85-140",112,1,85,140,"DAYS",5038],["CDISCPILOT01","701","701","01-701-1148","2013-08-23","2014-02-20","Xanomeline High Dose",81,57,"<65",1,"WHITE",1,"M","Y","Y","Y","Week 24",24,"WEEK 24",12,170,"2014-02-08","Word Recognition","ACITM08",8,0,1,-1,-100,"","Y","",">140",168,2,141,null,"DAYS",5053],["CDISCPILOT01","701","701","01-701-1148","2013-08-23","2014-02-20","Xanomeline High Dose",81,57,"<65",1,"WHITE",1,"M","Y","Y","Y","Baseline",0,"BASELINE",3,1,"2013-08-23","Attention/Visual Search Task","ACITM09",9,29,29,null,null,"Y","Y","","<=1",1,0,null,1,"DAYS",5009],["CDISCPILOT01","701","701","01-701-1148","2013-08-23","2014-02-20","Xanomeline High Dose",81,57,"<65",1,"WHITE",1,"M","Y","Y","Y","Week 8",8,"WEEK 8",8,57,"2013-10-18","Attention/Visual Search Task","ACITM09",9,27,29,-2,-6.89655172414,"","Y","","2-84",56,1,2,84,"DAYS",5024],["CDISCPILOT01","701","701","01-701-1148","2013-08-23","2014-02-20","Xanomeline High Dose",81,57,"<65",1,"WHITE",1,"M","Y","Y","Y","Week 16",16,"WEEK 16",10,113,"2013-12-13","Attention/Visual Search Task","ACITM09",9,34,29,5,17.2413793103,"","Y","","85-140",112,1,85,140,"DAYS",5039],["CDISCPILOT01","701","701","01-701-1148","2013-08-23","2014-02-20","Xanomeline High Dose",81,57,"<65",1,"WHITE",1,"M","Y","Y","Y","Week 24",24,"WEEK 24",12,170,"2014-02-08","Attention/Visual Search Task","ACITM09",9,39,29,10,34.4827586207,"","Y","",">140",168,2,141,null,"DAYS",5054],["CDISCPILOT01","701","701","01-701-1148","2013-08-23","2014-02-20","Xanomeline High Dose",81,57,"<65",1,"WHITE",1,"M","Y","Y","Y","Baseline",0,"BASELINE",3,1,"2013-08-23","Maze Solution","ACITM10",10,4,4,null,null,"Y","Y","","<=1",1,0,null,1,"DAYS",5010],["CDISCPILOT01","701","701","01-701-1148","2013-08-23","2014-02-20","Xanomeline High Dose",81,57,"<65",1,"WHITE",1,"M","Y","Y","Y","Week 8",8,"WEEK 8",8,57,"2013-10-18","Maze Solution","ACITM10",10,2,4,-2,-50,"","Y","","2-84",56,1,2,84,"DAYS",5025],["CDISCPILOT01","701","701","01-701-1148","2013-08-23","2014-02-20","Xanomeline High Dose",81,57,"<65",1,"WHITE",1,"M","Y","Y","Y","Week 16",16,"WEEK 16",10,113,"2013-12-13","Maze Solution","ACITM10",10,3,4,-1,-25,"","Y","","85-140",112,1,85,140,"DAYS",5040],["CDISCPILOT01","701","701","01-701-1148","2013-08-23","2014-02-20","Xanomeline High Dose",81,57,"<65",1,"WHITE",1,"M","Y","Y","Y","Week 24",24,"WEEK 24",12,170,"2014-02-08","Maze Solution","ACITM10",10,2,4,-2,-50,"","Y","",">140",168,2,141,null,"DAYS",5055],["CDISCPILOT01","701","701","01-701-1148","2013-08-23","2014-02-20","Xanomeline High Dose",81,57,"<65",1,"WHITE",1,"M","Y","Y","Y","Baseline",0,"BASELINE",3,1,"2013-08-23","Spoken Language Ability","ACITM11",11,0,0,null,null,"Y","Y","","<=1",1,0,null,1,"DAYS",5011],["CDISCPILOT01","701","701","01-701-1148","2013-08-23","2014-02-20","Xanomeline High Dose",81,57,"<65",1,"WHITE",1,"M","Y","Y","Y","Week 8",8,"WEEK 8",8,57,"2013-10-18","Spoken Language Ability","ACITM11",11,0,0,0,null,"","Y","","2-84",56,1,2,84,"DAYS",5026],["CDISCPILOT01","701","701","01-701-1148","2013-08-23","2014-02-20","Xanomeline High Dose",81,57,"<65",1,"WHITE",1,"M","Y","Y","Y","Week 16",16,"WEEK 16",10,113,"2013-12-13","Spoken Language Ability","ACITM11",11,0,0,0,null,"","Y","","85-140",112,1,85,140,"DAYS",5041],["CDISCPILOT01","701","701","01-701-1148","2013-08-23","2014-02-20","Xanomeline High Dose",81,57,"<65",1,"WHITE",1,"M","Y","Y","Y","Week 24",24,"WEEK 24",12,170,"2014-02-08","Spoken Language Ability","ACITM11",11,0,0,0,null,"","Y","",">140",168,2,141,null,"DAYS",5056],["CDISCPILOT01","701","701","01-701-1148","2013-08-23","2014-02-20","Xanomeline High Dose",81,57,"<65",1,"WHITE",1,"M","Y","Y","Y","Baseline",0,"BASELINE",3,1,"2013-08-23","Comprehension Of Spoken Language","ACITM12",12,0,0,null,null,"Y","Y","","<=1",1,0,null,1,"DAYS",5012],["CDISCPILOT01","701","701","01-701-1148","2013-08-23","2014-02-20","Xanomeline High Dose",81,57,"<65",1,"WHITE",1,"M","Y","Y","Y","Week 8",8,"WEEK 8",8,57,"2013-10-18","Comprehension Of Spoken Language","ACITM12",12,0,0,0,null,"","Y","","2-84",56,1,2,84,"DAYS",5027],["CDISCPILOT01","701","701","01-701-1148","2013-08-23","2014-02-20","Xanomeline High Dose",81,57,"<65",1,"WHITE",1,"M","Y","Y","Y","Week 16",16,"WEEK 16",10,113,"2013-12-13","Comprehension Of Spoken Language","ACITM12",12,0,0,0,null,"","Y","","85-140",112,1,85,140,"DAYS",5042],["CDISCPILOT01","701","701","01-701-1148","2013-08-23","2014-02-20","Xanomeline High Dose",81,57,"<65",1,"WHITE",1,"M","Y","Y","Y","Week 24",24,"WEEK 24",12,170,"2014-02-08","Comprehension Of Spoken Language","ACITM12",12,0,0,0,null,"","Y","",">140",168,2,141,null,"DAYS",5057],["CDISCPILOT01","701","701","01-701-1148","2013-08-23","2014-02-20","Xanomeline High Dose",81,57,"<65",1,"WHITE",1,"M","Y","Y","Y","Baseline",0,"BASELINE",3,1,"2013-08-23","Word Finding Difficulty In Spontaneous S","ACITM13",13,0,0,null,null,"Y","Y","","<=1",1,0,null,1,"DAYS",5013],["CDISCPILOT01","701","701","01-701-1148","2013-08-23","2014-02-20","Xanomeline High Dose",81,57,"<65",1,"WHITE",1,"M","Y","Y","Y","Week 8",8,"WEEK 8",8,57,"2013-10-18","Word Finding Difficulty In Spontaneous S","ACITM13",13,0,0,0,null,"","Y","","2-84",56,1,2,84,"DAYS",5028],["CDISCPILOT01","701","701","01-701-1148","2013-08-23","2014-02-20","Xanomeline High Dose",81,57,"<65",1,"WHITE",1,"M","Y","Y","Y","Week 16",16,"WEEK 16",10,113,"2013-12-13","Word Finding Difficulty In Spontaneous S","ACITM13",13,0,0,0,null,"","Y","","85-140",112,1,85,140,"DAYS",5043],["CDISCPILOT01","701","701","01-701-1148","2013-08-23","2014-02-20","Xanomeline High Dose",81,57,"<65",1,"WHITE",1,"M","Y","Y","Y","Week 24",24,"WEEK 24",12,170,"2014-02-08","Word Finding Difficulty In Spontaneous S","ACITM13",13,0,0,0,null,"","Y","",">140",168,2,141,null,"DAYS",5058],["CDISCPILOT01","701","701","01-701-1148","2013-08-23","2014-02-20","Xanomeline High Dose",81,57,"<65",1,"WHITE",1,"M","Y","Y","Y","Baseline",0,"BASELINE",3,1,"2013-08-23","Recall Of Test Instructions","ACITM14",14,0,0,null,null,"Y","Y","","<=1",1,0,null,1,"DAYS",5014],["CDISCPILOT01","701","701","01-701-1148","2013-08-23","2014-02-20","Xanomeline High Dose",81,57,"<65",1,"WHITE",1,"M","Y","Y","Y","Week 8",8,"WEEK 8",8,57,"2013-10-18","Recall Of Test Instructions","ACITM14",14,0,0,0,null,"","Y","","2-84",56,1,2,84,"DAYS",5029],["CDISCPILOT01","701","701","01-701-1148","2013-08-23","2014-02-20","Xanomeline High Dose",81,57,"<65",1,"WHITE",1,"M","Y","Y","Y","Week 16",16,"WEEK 16",10,113,"2013-12-13","Recall Of Test Instructions","ACITM14",14,0,0,0,null,"","Y","","85-140",112,1,85,140,"DAYS",5044],["CDISCPILOT01","701","701","01-701-1148","2013-08-23","2014-02-20","Xanomeline High Dose",81,57,"<65",1,"WHITE",1,"M","Y","Y","Y","Week 24",24,"WEEK 24",12,170,"2014-02-08","Recall Of Test Instructions","ACITM14",14,0,0,0,null,"","Y","",">140",168,2,141,null,"DAYS",5059],["CDISCPILOT01","701","701","01-701-1148","2013-08-23","2014-02-20","Xanomeline High Dose",81,57,"<65",1,"WHITE",1,"M","Y","Y","Y","Baseline",0,"BASELINE",3,1,"2013-08-23","Adas-Cog(11) Subscore","ACTOT",15,5,5,null,null,"Y","Y","","<=1",1,0,null,1,"DAYS",5015],["CDISCPILOT01","701","701","01-701-1148","2013-08-23","2014-02-20","Xanomeline High Dose",81,57,"<65",1,"WHITE",1,"M","Y","Y","Y","Week 8",8,"WEEK 8",8,57,"2013-10-18","Adas-Cog(11) Subscore","ACTOT",15,6,5,1,20,"","Y","","2-84",56,1,2,84,"DAYS",5030],["CDISCPILOT01","701","701","01-701-1148","2013-08-23","2014-02-20","Xanomeline High Dose",81,57,"<65",1,"WHITE",1,"M","Y","Y","Y","Week 16",16,"WEEK 16",10,113,"2013-12-13","Adas-Cog(11) Subscore","ACTOT",15,6,5,1,20,"","Y","","85-140",112,1,85,140,"DAYS",5045],["CDISCPILOT01","701","701","01-701-1148","2013-08-23","2014-02-20","Xanomeline High Dose",81,57,"<65",1,"WHITE",1,"M","Y","Y","Y","Week 24",24,"WEEK 24",12,170,"2014-02-08","Adas-Cog(11) Subscore","ACTOT",15,7,5,2,40,"","Y","",">140",168,2,141,null,"DAYS",5060],["CDISCPILOT01","701","701","01-701-1153","2013-09-23","2014-03-16","Placebo",0,79,"65-80",2,"WHITE",1,"F","Y","Y","Y","Baseline",0,"BASELINE",3,1,"2013-09-23","Word Recall Task","ACITM01",1,10,10,null,null,"Y","Y","","<=1",1,0,null,1,"DAYS",5001],["CDISCPILOT01","701","701","01-701-1153","2013-09-23","2014-03-16","Placebo",0,79,"65-80",2,"WHITE",1,"F","Y","Y","Y","Week 8",8,"WEEK 8",8,57,"2013-11-18","Word Recall Task","ACITM01",1,10,10,0,0,"","Y","","2-84",56,1,2,84,"DAYS",5016],["CDISCPILOT01","701","701","01-701-1153","2013-09-23","2014-03-16","Placebo",0,79,"65-80",2,"WHITE",1,"F","Y","Y","Y","Week 16",16,"WEEK 16",10,108,"2014-01-08","Word Recall Task","ACITM01",1,10,10,0,0,"","Y","","85-140",112,4,85,140,"DAYS",5031],["CDISCPILOT01","701","701","01-701-1153","2013-09-23","2014-03-16","Placebo",0,79,"65-80",2,"WHITE",1,"F","Y","Y","Y","Week 24",24,"WEEK 24",12,170,"2014-03-11","Word Recall Task","ACITM01",1,10,10,0,0,"","Y","",">140",168,2,141,null,"DAYS",5046],["CDISCPILOT01","701","701","01-701-1153","2013-09-23","2014-03-16","Placebo",0,79,"65-80",2,"WHITE",1,"F","Y","Y","Y","Baseline",0,"BASELINE",3,1,"2013-09-23","Naming Objects And Fingers (Refer To 5 C","ACITM02",2,4,4,null,null,"Y","Y","","<=1",1,0,null,1,"DAYS",5002],["CDISCPILOT01","701","701","01-701-1153","2013-09-23","2014-03-16","Placebo",0,79,"65-80",2,"WHITE",1,"F","Y","Y","Y","Week 8",8,"WEEK 8",8,57,"2013-11-18","Naming Objects A